SamplingTime, AccelerationX, AccelerationY, AccelerationZ, GyroX, GyroY, GyroZ, MagneticFieldX, MagneticFieldY, MagneticFieldZ
1643109622.278336, 1.416320, -5.412991, -7.652916, , , , , , 
1643109622.298444, 1.522263, -5.635053, -7.876325, , , , , , 
1643109622.318320, 1.258003, -5.672612, -8.003816, , , , , , 
1643109622.337933, 0.950199, -5.622932, -7.987506, , , , , , 
1643109622.358307, 0.954089, -5.347300, -8.290223, , , , , , 
1643109622.378281, 1.400907, -5.263652, -9.355193, , , , , , 
1643109622.398434, 0.845452, -5.487211, -9.155427, , , , , , 
1643109622.418422, 0.030526, -5.853225, -9.082254, , , , , , 
1643109622.438325, -0.389207, -5.828684, -9.211092, , , , , , 
1643109622.458406, -0.235979, -5.770774, -8.705916, , , , , , 
1643109622.478361, -0.020949, -6.199636, -8.149114, , , , , , 
1643109622.498317, -0.414496, -6.307674, -7.427562, , , , , , 
1643109622.517650, -0.603040, -6.453421, -7.211036, , , , , , 
1643109622.538323, -0.735170, -6.750003, -7.459285, , , , , , 
1643109622.558391, -0.523133, -7.697508, -6.335207, , , , , , 
1643109622.578403, -1.831265, -8.000075, -5.452196, , , , , , 
1643109622.598308, -3.528305, -11.049540, -6.676381, , , , , , 
1643109622.618306, -3.740940, -10.466103, -5.172673, , , , , , 
1643109622.638320, -2.241721, -7.067534, -5.308993, , , , , , 
1643109622.658292, -0.148141, -7.413795, -6.025308, , , , , , 
1643109622.678366, 0.446070, -8.474726, -5.815217, , , , , , 
1643109622.698310, 0.265607, -8.201338, -4.766257, , , , , , 
1643109622.718383, 0.700005, -8.239046, -3.836858, , , , , , 
1643109622.738354, 0.882712, -8.735544, -3.454833, , , , , , 
1643109622.758381, 0.603040, -8.661473, -3.387496, , , , , , 
1643109622.778351, 1.152359, -8.924237, -2.430564, , , , , , 
1643109622.798311, 0.782754, -8.584260, -1.159093, , , , , , 
1643109622.818343, 0.656311, -8.571691, 0.775272, , , , , , 
1643109622.837830, 0.864456, -9.248951, 3.339013, , , , , , 
1643109622.858367, 0.243011, -9.643545, 6.118233, , , , , , 
1643109622.878323, 0.138415, -9.786000, 6.145467, , , , , , 
1643109622.898317, 0.148291, -9.594913, 3.207931, , , , , , 
1643109622.918320, 0.054767, -9.469516, -0.868946, , , , , , 
1643109622.937459, -0.536301, -9.134328, -3.224241, , , , , , 
1643109622.958360, -0.680701, -9.329905, -2.635417, , , , , , 
1643109622.978358, -0.140061, -9.575011, -0.215329, , , , , , 
1643109622.998327, -0.499041, -9.818322, 1.689558, , , , , , 
1643109623.017819, -0.638504, -10.375273, 2.526631, , , , , , 
1643109623.038357, -0.474351, -10.032304, 2.526930, , , , , , 
1643109623.058356, -0.312743, -10.027365, 1.813458, , , , , , 
1643109623.078388, -0.927753, -9.862315, 1.729511, , , , , , 
1643109623.098381, -0.789338, -9.598654, 1.611896, , , , , , 
1643109623.118358, -1.222090, -10.243293, 1.253963, , , , , , 
1643109623.138388, -2.022951, -9.530419, 0.832733, , , , , , 
1643109623.158362, -0.094272, -10.472687, 1.972673, , , , , , 
1643109623.178385, -0.095020, -9.955689, 1.967884, , , , , , 
1643109623.198458, 0.217723, -9.478644, 1.088614, , , , , , 
1643109623.218379, -1.944541, -9.004742, 1.688361, , , , , , 
1643109623.238319, -1.619977, -8.488492, 1.795951, , , , , , 
1643109623.258382, -0.655413, -9.875034, 1.581221, , , , , , 
1643109623.278379, 0.515651, -10.116549, 1.547253, , , , , , 
1643109623.298253, -0.393846, -9.418041, 1.291821, , , , , , 
1643109623.318385, -1.420210, -9.054571, 0.322319, , , , , , 
1643109623.338341, -1.348235, -9.163956, 1.334019, , , , , , 
1643109623.358383, -0.880917, -9.545532, 1.789666, , , , , , 
1643109623.378326, -0.786495, -9.823409, 1.373673, , , , , , 
1643109623.398312, -0.571167, -9.950901, 1.297358, , , , , , 
1643109623.418277, -0.661548, -9.792584, 2.012626, , , , , , 
1643109623.438294, -1.107767, -9.502736, 2.234538, , , , , , 
1643109623.458326, -1.142483, -9.640552, 2.033276, , , , , , 
1643109623.478402, -1.287781, -9.762956, 1.929278, , , , , , 
1643109623.498393, -1.366491, -10.149320, 1.722179, , , , , , 
1643109623.518327, -1.369483, -10.342353, 1.831265, , , , , , 
1643109623.538322, -1.360056, -10.350283, 1.938406, , , , , , 
1643109623.558347, -0.811485, -10.458621, 1.827524, , , , , , 
1643109623.578319, -1.043573, -10.442011, 1.726219, , , , , , 
1643109623.598322, -1.280599, -9.961076, 1.807024, , , , , , 
1643109623.618372, -0.572364, -12.419921, 1.490839, , , , , , 
1643109623.638303, -0.246453, -11.711088, 1.744176, , , , , , 
1643109623.658371, 0.009726, -11.201272, 0.311396, , , , , , 
1643109623.678305, -0.127791, -11.058369, 0.189740, , , , , , 
1643109623.698320, -0.212036, -10.805331, 0.117017, , , , , , 
1643109623.718390, -0.060154, -10.200496, 0.224157, , , , , , 
1643109623.738307, 0.160112, -9.747394, -0.287903, , , , , , 
1643109623.758392, 0.896030, -9.656713, -0.531213, , , , , , 
1643109623.778392, 1.612495, -9.430012, -0.948403, , , , , , 
1643109623.798360, 2.071433, -9.334094, -0.941520, , , , , , 
1643109623.818382, 1.969829, -9.585635, -0.911293, , , , , , 
1643109623.838321, 1.333421, -10.035745, -0.766743, , , , , , 
1643109623.858363, 1.017087, -10.390087, -0.359878, , , , , , 
1643109623.878383, 0.727688, -10.262745, -0.093374, , , , , , 
1643109623.898362, 0.790236, -10.234314, 0.087538, , , , , , 
1643109623.917908, 0.621445, -10.015993, 0.246004, , , , , , 
1643109623.938136, 0.751779, -9.526229, 0.324564, , , , , , 
1643109623.958365, 0.773177, -9.011176, 0.492607, , , , , , 
1643109623.978384, 1.026364, -8.573636, 0.295684, , , , , , 
1643109623.998391, 1.201291, -8.495675, 0.387561, , , , , , 
1643109624.018409, 1.326388, -8.641721, 0.617854, , , , , , 
1643109624.038326, 1.135151, -8.873809, 0.746542, , , , , , 
1643109624.057697, 0.900220, -9.211541, 0.724845, , , , , , 
1643109624.078401, 1.028908, -9.431658, 0.846650, , , , , , 
1643109624.098368, 1.229871, -9.192837, 0.805350, , , , , , 
1643109624.118325, 1.210269, -8.801684, 0.741305, , , , , , 
1643109624.138426, 0.934786, -8.777293, 0.850690, , , , , , 
1643109624.158328, 1.041478, -9.248951, 1.017386, , , , , , 
1643109624.178390, 1.285237, -9.505579, 1.036689, , , , , , 
1643109624.198364, 1.178097, -9.544186, 0.941520, , , , , , 
1643109624.218324, 0.989703, -9.607632, 1.012598, , , , , , 
1643109624.238364, 0.801309, -9.451560, 1.315464, , , , , , 
1643109624.258393, 0.670975, -9.604789, 1.339257, , , , , , 
1643109624.278468, 0.492308, -9.970054, 1.340753, , , , , , 
1643109624.298386, 0.470311, -10.346991, 1.485004, , , , , , 
1643109624.318367, 0.425120, -10.558280, 1.475277, , , , , , 
1643109624.338324, 0.519392, -11.036821, 2.026243, , , , , , 
1643109624.358367, 0.352397, -11.049091, 1.972523, , , , , , 
1643109624.378107, 0.382623, -10.803685, 2.003648, , , , , , 
1643109624.398399, 0.388758, -10.622175, 2.018462, , , , , , 
1643109624.418333, -0.068085, -11.558757, 1.983596, , , , , , 
1643109624.438371, -0.013018, -12.306346, 1.975815, , , , , , 
1643109624.458367, 0.105943, -11.767202, 1.063175, , , , , , 
1643109624.478326, -0.053870, -10.811616, 0.672920, , , , , , 
1643109624.498371, -0.638055, -9.643246, 0.232686, , , , , , 
1643109624.518331, -1.005116, -9.023447, 0.305859, , , , , , 
1643109624.538364, -1.252916, -8.724321, -0.033668, , , , , , 
1643109624.558362, -1.353622, -9.162011, -0.236577, , , , , , 
1643109624.578433, -1.420809, -10.003274, -0.036212, , , , , , 
1643109624.598366, -1.404947, -10.615292, 0.171934, , , , , , 
1643109624.618329, -1.209521, -10.844088, 0.002544, , , , , , 
1643109624.638415, -0.894983, -10.925490, 0.332046, , , , , , 
1643109624.658395, -0.708833, -10.319308, 0.720056, , , , , , 
1643109624.678370, -0.724096, -9.559748, 0.813879, , , , , , 
1643109624.698331, -0.871340, -8.774899, 0.909797, , , , , , 
1643109624.718329, -0.968754, -8.248174, 0.903362, , , , , , 
1643109624.738368, -0.838569, -8.111106, 0.789937, , , , , , 
1643109624.758390, -0.684442, -8.270021, 0.858770, , , , , , 
1643109624.778370, -0.627580, -8.395567, 1.034295, , , , , , 
1643109624.798319, -0.686986, -8.551191, 1.083077, , , , , , 
1643109624.818370, -0.781408, -8.837447, 1.132008, , , , , , 
1643109624.838368, -0.887950, -8.866178, 1.239897, , , , , , 
1643109624.858392, -0.853533, -8.850915, 1.325939, , , , , , 
1643109624.878371, -0.844555, -8.830714, 1.459864, , , , , , 
1643109624.898354, -0.978929, -8.908076, 1.417816, , , , , , 
1643109624.918390, -1.004817, -8.998607, 1.464803, , , , , , 
1643109624.938332, -0.859369, -9.100211, 1.203984, , , , , , 
1643109624.958307, -0.723797, -9.292346, 1.303942, , , , , , 
1643109624.978366, -0.457143, -9.781661, 1.865083, , , , , , 
1643109624.998376, -0.408361, -10.144831, 1.921496, , , , , , 
1643109625.018394, -0.280571, -10.488549, 2.101062, , , , , , 
1643109625.038372, -0.110133, -10.997765, 2.058415, , , , , , 
1643109625.058395, -0.380379, -10.977265, 2.412906, , , , , , 
1643109625.078375, -0.660201, -10.760440, 2.628534, , , , , , 
1643109625.098370, -1.098340, -10.709264, 2.484732, , , , , , 
1643109625.118332, -0.980575, -11.555614, 1.892616, , , , , , 
1643109625.138423, 0.234632, -13.139528, 2.880524, , , , , , 
1643109625.158336, 0.850091, -12.171223, 1.061230, , , , , , 
1643109625.178403, 0.756418, -10.831668, 0.519542, , , , , , 
1643109625.198377, 0.436643, -9.741408, 0.006883, , , , , , 
1643109625.218396, 0.774824, -9.431359, 0.680701, , , , , , 
1643109625.238371, 1.407192, -9.018209, 0.257826, , , , , , 
1643109625.258332, 2.037765, -9.537003, 0.362273, , , , , , 
1643109625.278359, 2.336591, -9.972897, -0.016909, , , , , , 
1643109625.298370, 2.280627, -10.320655, 0.032471, , , , , , 
1643109625.318398, 1.719486, -10.834660, 0.384419, , , , , , 
1643109625.338334, 0.922217, -10.843788, 0.607080, , , , , , 
1643109625.358399, 0.456544, -10.249577, 0.944961, , , , , , 
1643109625.378330, 0.189441, -9.615413, 0.673220, , , , , , 
1643109625.398375, 0.332495, -9.048436, 0.824054, , , , , , 
1643109625.418279, 0.599897, -8.492233, 0.811934, , , , , , 
1643109625.438341, 0.551415, -8.111106, 1.035941, , , , , , 
1643109625.458379, 0.484227, -8.092102, 1.168969, , , , , , 
1643109625.478334, 0.533757, -8.257751, 1.065869, , , , , , 
1643109625.498334, 0.767641, -8.495076, 1.138892, , , , , , 
1643109625.518330, 0.897975, -8.563910, 1.317559, , , , , , 
1643109625.538313, 0.890194, -8.442853, 1.452831, , , , , , 
1643109625.558301, 0.802357, -8.342446, 1.537077, , , , , , 
1643109625.578304, 0.760608, -8.390480, 1.347936, , , , , , 
1643109625.598304, 0.755670, -8.457667, 1.351676, , , , , , 
1643109625.618387, 0.961122, -8.650550, 1.697788, , , , , , 
1643109625.638377, 0.958878, -9.012523, 1.697040, , , , , , 
1643109625.658430, 0.940472, -9.602844, 1.945588, , , , , , 
1643109625.678400, 0.792930, -9.987712, 2.065448, , , , , , 
1643109625.698397, 0.594660, -10.357316, 2.112584, , , , , , 
1643109625.718372, 0.533159, -10.768371, 2.255787, , , , , , 
1643109625.738397, 0.591667, -10.903045, 2.476203, , , , , , 
1643109625.758332, 0.668431, -10.673650, 2.561945, , , , , , 
1643109625.778350, 0.609474, -10.363751, 2.705298, , , , , , 
1643109625.798374, 0.275632, -10.500071, 2.452560, , , , , , 
1643109625.818372, -0.256180, -12.139800, 2.401684, , , , , , 
1643109625.838399, -0.036063, -12.568511, 1.705869, , , , , , 
1643109625.858334, 0.041450, -11.777677, 0.948702, , , , , , 
1643109625.878395, -0.271143, -10.961703, 0.697760, , , , , , 
1643109625.898381, -1.010353, -9.605687, 0.002095, , , , , , 
1643109625.918384, -1.105074, -8.919598, 0.049680, , , , , , 
1643109625.938378, -1.007061, -9.191639, -0.260519, , , , , , 
1643109625.958566, -1.044171, -10.077494, -0.108637, , , , , , 
1643109625.978377, -1.188422, -10.988338, 0.168043, , , , , , 
1643109625.998357, -0.993294, -11.318139, 0.396240, , , , , , 
1643109626.018335, -0.510264, -11.352556, 0.562937, , , , , , 
1643109626.038339, -0.232088, -10.438869, 0.596605, , , , , , 
1643109626.058373, -0.170737, -9.459790, 0.645836, , , , , , 
1643109626.078396, -0.396240, -8.574384, 0.819266, , , , , , 
1643109626.098392, -0.324714, -7.860463, 0.752827, , , , , , 
1643109626.118407, -0.378733, -7.635109, 0.752827, , , , , , 
1643109626.138438, -0.254833, -7.869591, 0.867748, , , , , , 
1643109626.158384, -0.563685, -8.245032, 0.925808, , , , , , 
1643109626.178341, -0.590021, -8.667010, 0.944812, , , , , , 
1643109626.198307, -0.410157, -8.907029, 1.222240, , , , , , 
1643109626.218337, -0.395343, -8.992921, 1.375170, , , , , , 
1643109626.238327, -0.438737, -9.195081, 1.009455, , , , , , 
1643109626.258323, -0.799214, -9.359982, 1.473332, , , , , , 
1643109626.278387, -0.761805, -9.346215, 1.709909, , , , , , 
1643109626.298317, -0.853832, -9.167398, 1.803881, , , , , , 
1643109626.318317, -0.799514, -9.182960, 1.845481, , , , , , 
1643109626.338319, -0.681450, -9.340679, 1.970877, , , , , , 
1643109626.358341, -0.512060, -9.742755, 2.233790, , , , , , 
1643109626.378428, -0.364667, -10.144681, 2.363376, , , , , , 
1643109626.398431, -0.429909, -10.150368, 2.423531, , , , , , 
1643109626.418339, -0.566827, -10.073005, 2.518551, , , , , , 
1643109626.438408, -0.641347, -9.840917, 2.595315, , , , , , 
1643109626.458377, -0.659902, -9.594314, 2.671779, , , , , , 
1643109626.478348, -0.689979, -9.580099, 2.244414, , , , , , 
1643109626.498343, -0.092775, -11.979238, 2.004994, , , , , , 
1643109626.518295, 1.116895, -13.060071, 2.530222, , , , , , 
1643109626.538396, 1.135300, -10.986842, 0.463877, , , , , , 
1643109626.558318, 1.089811, -10.289979, 0.462530, , , , , , 
1643109626.578450, 0.758962, -10.087071, 1.274015, , , , , , 
1643109626.598326, 1.218798, -10.289979, 0.808791, , , , , , 
1643109626.617641, 1.877054, -10.568605, 0.175375, , , , , , 
1643109626.638402, 2.233192, -10.808174, 0.139612, , , , , , 
1643109626.658372, 1.728913, -10.927585, 0.651223, , , , , , 
1643109626.678337, 1.110311, -11.178827, 0.933140, , , , , , 
1643109626.697687, 0.786795, -11.089942, 0.935534, , , , , , 
1643109626.718339, 0.715268, -10.685921, 1.260248, , , , , , 
1643109626.738379, 0.697162, -9.860669, 1.164929, , , , , , 
1643109626.758382, 0.852934, -9.009830, 1.184980, , , , , , 
1643109626.778401, 0.906654, -8.200440, 1.037737, , , , , , 
1643109626.798338, 0.781108, -7.800459, 0.984765, , , , , , 
1643109626.818337, 0.853683, -7.739407, 1.091457, , , , , , 
1643109626.838378, 0.862362, -8.049605, 1.077540, , , , , , 
1643109626.858385, 0.874931, -8.295161, 1.137395, , , , , , 
1643109626.878410, 0.900220, -8.445397, 1.195455, , , , , , 
1643109626.898341, 0.886453, -8.392425, 1.418116, , , , , , 
1643109626.918347, 0.809091, -8.237101, 1.152658, , , , , , 
1643109626.937915, 0.924012, -8.248324, 1.293767, , , , , , 
1643109626.958352, 0.973393, -8.522161, 1.602319, , , , , , 
1643109626.978389, 1.014393, -8.793005, 1.836951, , , , , , 
1643109626.998407, 0.816273, -9.205406, 2.094478, , , , , , 
1643109627.018126, 0.577302, -9.722853, 2.308908, , , , , , 
1643109627.037818, 0.399532, -10.317214, 2.490119, , , , , , 
1643109627.058385, 0.340725, -10.645069, 2.433107, , , , , , 
1643109627.078396, 0.539743, -10.641628, 2.583344, , , , , , 
1643109627.098381, 0.491709, -10.328137, 2.643648, , , , , , 
1643109627.118342, 0.455048, -9.949255, 2.797625, , , , , , 
1643109627.138388, 0.509217, -9.437644, 2.929156, , , , , , 
1643109627.158427, 0.394445, -9.008034, 2.733729, , , , , , 
1643109627.178397, -0.038607, -9.591172, 2.273294, , , , , , 
1643109627.198390, -0.338181, -12.064083, 2.727445, , , , , , 
1643109627.218345, 0.043395, -12.735956, 1.962647, , , , , , 
1643109627.238383, 0.358382, -12.348394, 0.960673, , , , , , 
1643109627.258382, -0.422277, -11.152341, 0.309899, , , , , , 
1643109627.278432, -1.185130, -10.597036, 0.476745, , , , , , 
1643109627.298386, -1.153556, -9.960029, 0.881665, , , , , , 
1643109627.318348, -0.810886, -10.133159, 1.081431, , , , , , 
1643109627.338387, -0.917727, -10.860248, 0.916530, , , , , , 
1643109627.358421, -0.903213, -11.241076, 0.762853, , , , , , 
1643109627.378426, -0.679205, -10.932972, 0.676212, , , , , , 
1643109627.398383, -0.380229, -10.106075, 0.742203, , , , , , 
1643109627.418348, -0.363470, -9.297733, 0.966809, , , , , , 
1643109627.438387, -0.361973, -8.672397, 1.149815, , , , , , 
1643109627.457984, -0.365864, -7.986159, 1.217900, , , , , , 
1643109627.478405, -0.221913, -7.523031, 1.150414, , , , , , 
1643109627.498406, -0.264859, -7.586627, 1.080832, , , , , , 
1643109627.518329, -0.402226, -8.118439, 1.182736, , , , , , 
1643109627.538382, -0.535553, -8.725818, 1.069460, , , , , , 
1643109627.558344, -0.498293, -8.963442, 1.274015, , , , , , 
1643109627.578432, -0.419434, -9.071331, 1.240346, , , , , , 
1643109627.598344, -0.396240, -8.886678, 1.461211, , , , , , 
1643109627.618331, -0.438588, -8.833856, 1.545008, , , , , , 
1643109627.638392, -0.869095, -8.674791, 1.478120, , , , , , 
1643109627.658370, -0.839617, -8.774450, 1.274463, , , , , , 
1643109627.678407, -0.485574, -9.125350, 1.939902, , , , , , 
1643109627.698344, -0.422128, -9.384373, 1.983596, , , , , , 
1643109627.718329, -0.452803, -9.798270, 1.984793, , , , , , 
1643109627.738382, -0.360178, -10.267683, 2.046294, , , , , , 
1643109627.758344, -0.126893, -10.529849, 1.971027, , , , , , 
1643109627.778407, -0.078709, -10.607361, 2.213739, , , , , , 
1643109627.798384, -0.239420, -10.574441, 2.567183, , , , , , 
1643109627.818361, -0.389207, -10.214263, 2.850596, , , , , , 
1643109627.838383, -0.385018, -9.917681, 2.779219, , , , , , 
1643109627.858343, -0.235380, -10.246435, 1.789067, , , , , , 
1643109627.878409, 0.679654, -12.553697, 2.395399, , , , , , 
1643109627.898382, 1.724274, -12.297218, 1.442507, , , , , , 
1643109627.918341, 1.597082, -10.967090, 0.580744, , , , , , 
1643109627.938380, 1.366940, -10.267683, 0.016310, , , , , , 
1643109627.958347, 1.274463, -9.957934, 0.830339, , , , , , 
1643109627.978390, 1.817798, -10.007613, 0.328455, , , , , , 
1643109627.998391, 2.196979, -10.621277, 0.451457, , , , , , 
1643109628.018335, 2.179172, -10.839299, 0.174777, , , , , , 
1643109628.038348, 1.751359, -10.985944, 0.518494, , , , , , 
1643109628.058347, 1.254113, -10.935965, 0.717063, , , , , , 
1643109628.078347, 0.967257, -10.717943, 0.898574, , , , , , 
1643109628.098334, 0.885256, -10.022278, 1.029956, , , , , , 
1643109628.118474, 0.698808, -9.190592, 0.979977, , , , , , 
1643109628.138354, 0.681150, -8.615984, 0.976984, , , , , , 
1643109628.158344, 0.757166, -8.238598, 1.003021, , , , , , 
1643109628.178325, 0.683096, -8.074146, 0.909497, , , , , , 
1643109628.198314, 0.723498, -8.023119, 0.895581, , , , , , 
1643109628.218324, 0.810587, -8.114997, 0.928801, , , , , , 
1643109628.238323, 1.047314, -8.366538, 1.024120, , , , , , 
1643109628.258343, 1.161188, -8.693496, 1.139939, , , , , , 
1643109628.278426, 1.074548, -8.749460, 1.233313, , , , , , 
1643109628.298420, 0.919523, -8.540417, 1.334019, , , , , , 
1643109628.318378, 0.813580, -8.344391, 1.469741, , , , , , 
1643109628.338425, 0.797568, -8.485200, 1.637035, , , , , , 
1643109628.358389, 1.107169, -8.856302, 1.676839, , , , , , 
1643109628.378412, 1.133804, -9.293393, 1.315614, , , , , , 
1643109628.398390, 0.668730, -9.611523, 1.369034, , , , , , 
1643109628.418340, 0.568623, -9.787945, 1.844134, , , , , , 
1643109628.438369, 0.552612, -9.993248, 1.796699, , , , , , 
1643109628.458395, 0.405967, -10.213814, 2.008586, , , , , , 
1643109628.478417, 0.389507, -10.604967, 2.189348, , , , , , 
1643109628.498389, 0.515950, -10.708815, 2.358887, , , , , , 
1643109628.518400, 0.457741, -10.294918, 2.293346, , , , , , 
1643109628.538390, -0.067487, -9.990255, 2.119916, , , , , , 
1643109628.558396, -0.641197, -11.246613, 2.277185, , , , , , 
1643109628.578436, -0.526126, -12.096854, 2.657115, , , , , , 
1643109628.598351, -0.314838, -11.988067, 1.196951, , , , , , 
1643109628.618362, -0.225354, -11.435904, 1.011401, , , , , , 
1643109628.638394, -0.648679, -10.439168, -0.091129, , , , , , 
1643109628.658390, -0.824054, -9.874585, 0.660650, , , , , , 
1643109628.678389, -1.086818, -9.702502, 0.481833, , , , , , 
1643109628.698441, -1.044919, -10.055348, 0.600945, , , , , , 
1643109628.718418, -0.940472, -10.411485, 0.367809, , , , , , 
1643109628.738409, -0.784849, -10.950181, 0.475698, , , , , , 
1643109628.758390, -0.491709, -11.271602, 0.690727, , , , , , 
1643109628.778394, -0.239719, -10.939407, 0.702100, , , , , , 
1643109628.798417, -0.333692, -9.834183, 0.931045, , , , , , 
1643109628.818459, -0.549918, -9.017461, 1.165827, , , , , , 
1643109628.838338, -0.536451, -8.257302, 1.059135, , , , , , 
1643109628.858396, -0.371101, -7.775619, 1.012149, , , , , , 
1643109628.878422, -0.315436, -7.768586, 1.098340, , , , , , 
1643109628.898422, -0.496198, -8.053047, 1.222390, , , , , , 
1643109628.918412, -0.539892, -8.418911, 1.274763, , , , , , 
1643109628.938355, -0.358083, -8.642320, 1.240795, , , , , , 
1643109628.958393, -0.386065, -8.610597, 1.234510, , , , , , 
1643109628.978392, -0.537498, -8.552986, 1.388188, , , , , , 
1643109628.998088, -0.535703, -8.547300, 1.523460, , , , , , 
1643109629.018354, -0.539294, -8.596680, 1.688211, , , , , , 
1643109629.037552, -0.575207, -8.882039, 1.957409, , , , , , 
1643109629.058394, -0.566079, -9.168595, 2.028637, , , , , , 
1643109629.078397, -0.369904, -9.337087, 1.908328, , , , , , 
1643109629.098424, -0.352845, -9.637859, 1.884536, , , , , , 
1643109629.118354, -0.141707, -9.961824, 2.380285, , , , , , 
1643109629.138417, -0.192434, -10.032453, 2.275838, , , , , , 
1643109629.158431, -0.142605, -10.149170, 2.101361, , , , , , 
1643109629.178413, -0.147692, -10.113257, 2.230498, , , , , , 
1643109629.198405, -0.360776, -10.038439, 2.658312, , , , , , 
1643109629.218359, -0.565331, -9.969905, 2.783259, , , , , , 
1643109629.238396, -0.479140, -10.987889, 1.470040, , , , , , 
1643109629.258353, 0.483030, -14.088680, 2.920178, , , , , , 
1643109629.278444, 1.525855, -13.853599, 1.644817, , , , , , 
1643109629.298402, 1.284190, -11.194539, 0.302268, , , , , , 
1643109629.318340, 0.967257, -10.149021, -0.354342, , , , , , 
1643109629.338395, 0.649278, -9.941773, 1.271620, , , , , , 
1643109629.358355, 1.342549, -9.813833, 0.534206, , , , , , 
1643109629.378426, 1.941548, -10.268881, 0.375590, , , , , , 
1643109629.398398, 1.879299, -10.538079, 0.147243, , , , , , 
1643109629.418348, 1.416170, -10.685023, 0.360627, , , , , , 
1643109629.438404, 0.931793, -10.837055, 0.564882, , , , , , 
1643109629.458362, 0.510115, -10.669161, 0.929848, , , , , , 
1643109629.478399, 0.276081, -9.923068, 0.949002, , , , , , 
1643109629.498358, 0.265756, -9.219771, 1.078139, , , , , , 
1643109629.518342, 0.480337, -8.497022, 1.046266, , , , , , 
1643109629.538428, 0.753874, -7.940968, 0.946009, , , , , , 
1643109629.558345, 0.708833, -7.753772, 0.886603, , , , , , 
1643109629.578415, 0.705092, -8.016236, 0.900070, , , , , , 
1643109629.598475, 0.856526, -8.356811, 0.992546, , , , , , 
1643109629.618408, 1.118691, -8.638280, 1.016189, , , , , , 
1643109629.638431, 1.104326, -8.823980, 1.162684, , , , , , 
1643109629.658359, 0.935235, -8.828768, 1.354520, , , , , , 
1643109629.678428, 0.733075, -8.670751, 1.434127, , , , , , 
1643109629.698360, 0.624587, -8.586206, 1.572093, , , , , , 
1643109629.718344, 0.759710, -8.649951, 1.674594, , , , , , 
1643109629.738445, 0.832584, -8.781632, 1.697040, , , , , , 
1643109629.758316, 0.737414, -9.125500, 1.650203, , , , , , 
1643109629.778404, 0.686088, -9.475801, 2.012775, , , , , , 
1643109629.798422, 0.387561, -9.910050, 1.998410, , , , , , 
1643109629.818421, 0.386364, -10.338612, 2.451363, , , , , , 
1643109629.838360, 0.482881, -10.581174, 2.532766, , , , , , 
1643109629.858359, 0.618452, -10.533440, 2.771588, , , , , , 
1643109629.878400, 0.533159, -10.270975, 2.933496, , , , , , 
1643109629.898475, 0.340575, -9.869049, 2.923320, , , , , , 
1643109629.918431, -0.131980, -9.529222, 2.641553, , , , , , 
1643109629.938363, -0.653318, -10.766575, 2.154781, , , , , , 
1643109629.958360, -0.416292, -12.697948, 3.174113, , , , , , 
1643109629.978400, -0.071826, -12.748825, 1.679682, , , , , , 
1643109629.998364, -0.184952, -12.343157, 0.417339, , , , , , 
1643109630.018446, -0.730381, -11.142315, 0.559495, , , , , , 
1643109630.038361, -1.262193, -10.140940, 0.755071, , , , , , 
1643109630.058359, -1.368885, -10.000431, 1.033248, , , , , , 
1643109630.078337, -1.301997, -10.799346, 1.190666, , , , , , 
1643109630.098327, -1.497424, -10.910527, 0.723947, , , , , , 
1643109630.118365, -1.301997, -10.408044, 0.491859, , , , , , 
1643109630.138385, -1.051204, -9.943119, 0.786645, , , , , , 
1643109630.158449, -0.739060, -9.646538, 0.978780, , , , , , 
1643109630.178355, -0.297480, -8.883386, 1.084873, , , , , , 
1643109630.198357, -0.153528, -8.240842, 1.106121, , , , , , 
1643109630.218526, -0.278476, -7.742699, 1.075894, , , , , , 
1643109630.238450, -0.214580, -7.447164, 1.114351, , , , , , 
1643109630.258387, -0.331597, -7.765294, 1.045219, , , , , , 
1643109630.278440, -0.558597, -8.312967, 1.217152, , , , , , 
1643109630.298450, -0.767641, -8.765172, 1.325490, , , , , , 
1643109630.318449, -0.720505, -9.094974, 1.311574, , , , , , 
1643109630.338408, -0.648080, -9.075670, 1.397017, , , , , , 
1643109630.358365, -0.774674, -8.896105, 1.410334, , , , , , 
1643109630.378401, -0.929848, -8.657583, 1.308282, , , , , , 
1643109630.398372, -0.886304, -8.871116, 1.472135, , , , , , 
1643109630.418334, -0.906505, -9.138817, 1.668609, , , , , , 
1643109630.438406, -0.666336, -9.243414, 1.966986, , , , , , 
1643109630.458385, -0.754323, -9.346814, 1.846229, , , , , , 
1643109630.478274, -0.591817, -9.549573, 1.946336, , , , , , 
1643109630.498428, -0.416292, -9.827749, 1.961599, , , , , , 
1643109630.518315, -0.190938, -10.181642, 2.478448, , , , , , 
1643109630.538364, -0.150236, -10.278308, 2.334646, , , , , , 
1643109630.558363, -0.223858, -10.267085, 2.403479, , , , , , 
1643109630.578468, -0.162656, -9.963171, 2.557007, , , , , , 
1643109630.598370, -0.393248, -9.634118, 2.623446, , , , , , 
1643109630.618349, -0.579995, -9.742904, 2.487426, , , , , , 
1643109630.638366, -0.190189, -11.360637, 1.846977, , , , , , 
1643109630.658407, 0.776769, -13.427281, 2.662502, , , , , , 
1643109630.678432, 1.446397, -12.106281, 0.969203, , , , , , 
1643109630.698420, 1.186776, -10.812364, 0.177769, , , , , , 
1643109630.718449, 0.808193, -10.243891, 0.203058, , , , , , 
1643109630.738360, 1.064522, -10.641329, 0.646883, , , , , , 
1643109630.758444, 1.834407, -10.465205, 0.106392, , , , , , 
1643109630.778399, 2.426972, -10.598233, 0.069282, , , , , , 
1643109630.797434, 2.047791, -10.978312, 0.398635, , , , , , 
1643109630.818398, 1.270124, -11.026196, 0.621595, , , , , , 
1643109630.838372, 0.705092, -10.604667, 0.588974, , , , , , 
1643109630.858018, 0.421828, -10.179996, 0.641197, , , , , , 
1643109630.878555, 0.391003, -9.505579, 0.609324, , , , , , 
1643109630.898366, 0.515352, -8.713996, 0.659453, , , , , , 
1643109630.918439, 0.657358, -7.984064, 0.668730, , , , , , 
1643109630.938367, 0.767491, -7.761852, 0.683694, , , , , , 
1643109630.958366, 0.730381, -7.852832, 0.767491, , , , , , 
1643109630.978433, 0.804601, -8.210166, 0.812383, , , , , , 
1643109630.998403, 0.988656, -8.593538, 0.866551, , , , , , 
1643109631.018458, 1.099687, -8.870517, 0.933140, , , , , , 
1643109631.038344, 1.165228, -8.981848, 1.014992, , , , , , 
1643109631.058345, 1.144728, -8.837896, 1.209072, , , , , , 
1643109631.078366, 0.945859, -8.663269, 1.388787, , , , , , 
1643109631.098438, 0.928950, -8.703970, 1.456273, , , , , , 
1643109631.118408, 0.954688, -8.890569, 1.481712, , , , , , 
1643109631.138452, 0.914435, -9.003096, 1.658434, , , , , , 
1643109631.158351, 0.772429, -9.174581, 1.618929, , , , , , 
1643109631.178492, 0.490213, -9.662848, 1.685967, , , , , , 
1643109631.198429, 0.252289, -10.272472, 1.675941, , , , , , 
1643109631.218441, 0.568324, -10.670508, 2.127099, , , , , , 
1643109631.238436, 0.660650, -10.651205, 2.299780, , , , , , 
1643109631.258365, 0.701800, -10.418967, 2.341529, , , , , , 
1643109631.278316, 0.686537, -10.134356, 2.434005, , , , , , 
1643109631.298430, 0.671723, -9.721656, 2.458247, , , , , , 
1643109631.318413, 0.031873, -9.955689, 2.086696, , , , , , 
1643109631.338476, -0.820463, -12.109573, 2.267159, , , , , , 
1643109631.358378, -0.718560, -12.830527, 1.753304, , , , , , 
1643109631.378428, -0.033369, -12.555792, 1.023372, , , , , , 
1643109631.398375, -0.161609, -11.173141, 0.388609, , , , , , 
1643109631.418419, -1.009904, -10.607062, 0.518943, , , , , , 
1643109631.438457, -1.469142, -10.410138, 0.443227, , , , , , 
1643109631.458454, -1.104326, -10.310629, 0.573262, , , , , , 
1643109631.478433, -1.032499, -10.403554, 0.268749, , , , , , 
1643109631.498426, -1.087566, -10.611401, 0.044442, , , , , , 
1643109631.518417, -0.757765, -10.510695, 0.180164, , , , , , 
1643109631.538412, -0.489165, -10.004621, 0.540790, , , , , , 
1643109631.558442, -0.404321, -9.195680, 0.852485, , , , , , 
1643109631.578468, -0.529867, -8.490288, 1.038335, , , , , , 
1643109631.597577, -0.387412, -8.046762, 1.197250, , , , , , 
1643109631.618416, -0.209493, -7.608923, 1.082179, , , , , , 
1643109631.638371, -0.236727, -7.636306, 1.039532, , , , , , 
1643109631.658433, -0.402376, -8.157344, 1.088015, , , , , , 
1643109631.678413, -0.331597, -8.767716, 1.201440, , , , , , 
1643109631.698436, -0.517896, -8.998158, 1.209670, , , , , , 
1643109631.718437, -0.603339, -9.239224, 1.355268, , , , , , 
1643109631.738463, -0.434847, -9.095273, 1.347038, , , , , , 
1643109631.758375, -0.532860, -8.948927, 1.420510, , , , , , 
1643109631.778464, -0.704793, -8.943540, 1.589002, , , , , , 
1643109631.798414, -0.828394, -8.867674, 1.669207, , , , , , 
1643109631.818439, -0.747889, -8.885481, 1.734599, , , , , , 
1643109631.838416, -0.679504, -9.077616, 1.519869, , , , , , 
1643109631.858391, -0.231340, -9.305214, 1.580472, , , , , , 
1643109631.878376, -0.096816, -9.803059, 1.914015, , , , , , 
1643109631.898411, 0.017957, -10.257508, 2.230049, , , , , , 
1643109631.918373, -0.122852, -10.498724, 2.330755, , , , , , 
1643109631.938416, -0.268151, -10.332477, 2.293196, , , , , , 
1643109631.958372, -0.240767, -10.111611, 2.477999, , , , , , 
1643109631.978373, -0.244807, -9.917531, 2.635717, , , , , , 
1643109631.998369, -0.285658, -10.002226, 2.758270, , , , , , 
1643109632.018348, -0.107739, -11.143662, 1.970578, , , , , , 
1643109632.038349, 0.360627, -12.400917, 3.085228, , , , , , 
1643109632.058345, 1.008258, -12.304251, 1.556381, , , , , , 
1643109632.078396, 1.029207, -10.962301, 0.866551, , , , , , 
1643109632.098399, 1.214309, -10.557382, 0.644938, , , , , , 
1643109632.118362, 1.174805, -10.030358, 0.542586, , , , , , 
1643109632.138450, 1.672948, -10.245836, 1.059584, , , , , , 
1643109632.158462, 1.991377, -10.087819, 0.387711, , , , , , 
1643109632.178453, 2.321927, -10.270527, 0.101454, , , , , , 
1643109632.198418, 1.848773, -10.265738, 0.386215, , , , , , 
1643109632.218415, 1.411083, -10.407894, 0.761805, , , , , , 
1643109632.238446, 0.814926, -10.375423, 0.907702, , , , , , 
1643109632.258414, 0.480187, -10.026019, 0.855628, , , , , , 
1643109632.278230, 0.433351, -9.457845, 0.855927, , , , , , 
1643109632.298440, 0.705392, -8.995465, 0.817620, , , , , , 
1643109632.318413, 0.845602, -8.523657, 0.723797, , , , , , 
1643109632.338437, 0.774824, -8.229619, 0.689979, , , , , , 
1643109632.358417, 0.771980, -8.207473, 0.750881, , , , , , 
1643109632.378414, 0.833631, -8.363844, 0.830040, , , , , , 
1643109632.398437, 0.988955, -8.724770, 0.779462, , , , , , 
1643109632.418412, 0.999579, -8.916606, 0.870592, , , , , , 
1643109632.438375, 0.985663, -8.849867, 1.098041, , , , , , 
1643109632.458414, 0.888847, -8.595034, 1.110760, , , , , , 
1643109632.478412, 0.880767, -8.431181, 1.224784, , , , , , 
1643109632.498442, 0.905756, -8.608951, 1.289577, , , , , , 
1643109632.518416, 0.959925, -8.923639, 1.282843, , , , , , 
1643109632.538456, 0.857274, -9.080908, 1.387440, , , , , , 
1643109632.558130, 0.737713, -9.574113, 2.014571, , , , , , 
1643109632.578438, 0.560542, -9.827300, 2.034772, , , , , , 
1643109632.598441, 0.482731, -10.164134, 2.058116, , , , , , 
1643109632.618419, 0.523283, -10.485257, 2.232144, , , , , , 
1643109632.638375, 0.609324, -10.751611, 2.476053, , , , , , 
1643109632.658480, 0.683694, -10.638037, 2.620454, , , , , , 
1643109632.678378, 0.473453, -10.272173, 2.638410, , , , , , 
1643109632.698490, 0.271443, -10.024073, 2.613870, , , , , , 
1643109632.718383, -0.255731, -10.624420, 2.212991, , , , , , 
1643109632.738408, -0.654515, -12.297518, 2.636764, , , , , , 
1643109632.758380, -0.338929, -11.919832, 1.432630, , , , , , 
1643109632.778466, -0.203956, -11.302128, 0.924311, , , , , , 
1643109632.798468, -0.632668, -10.194361, 0.192284, , , , , , 
1643109632.818423, -1.165527, -9.868600, 0.308253, , , , , , 
1643109632.838382, -1.333421, -9.625140, 0.208595, , , , , , 
1643109632.858409, -1.377564, -10.138546, 0.631321, , , , , , 
1643109632.878463, -1.460164, -10.695797, 0.486173, , , , , , 
1643109632.898444, -1.243189, -11.084705, 0.284760, , , , , , 
1643109632.918416, -0.730980, -11.013178, 0.272640, , , , , , 
1643109632.938380, -0.410157, -10.594342, 0.747739, , , , , , 
1643109632.958448, -0.300921, -9.846154, 1.038036, , , , , , 
1643109632.978379, -0.212336, -9.094824, 1.190816, , , , , , 
1643109632.998445, -0.159364, -8.538920, 1.195305, , , , , , 
1643109633.018457, -0.309899, -8.219893, 1.183933, , , , , , 
1643109633.038381, -0.562188, -8.261791, 1.207426, , , , , , 
1643109633.058424, -0.692972, -8.568100, 1.222539, , , , , , 
1643109633.078379, -0.596156, -8.702324, 1.237802, , , , , , 
1643109633.098379, -0.418387, -8.692748, 1.280599, , , , , , 
1643109633.118468, -0.405368, -8.748413, 1.160889, , , , , , 
1643109633.138383, -0.429759, -8.697386, 1.403152, , , , , , 
1643109633.158420, -0.324115, -8.647108, 1.424700, , , , , , 
1643109633.178417, -0.343418, -8.558223, 1.307533, , , , , , 
1643109633.198442, -0.567276, -8.502708, 1.056292, , , , , , 
1643109633.218455, -0.647183, -8.780435, 1.685668, , , , , , 
1643109633.238416, -0.624288, -9.120113, 1.826926, , , , , , 
1643109633.258445, -0.435296, -9.332748, 1.976114, , , , , , 
1643109633.278459, -0.300472, -9.682301, 1.993921, , , , , , 
1643109633.298434, -0.057461, -10.144382, 2.092383, , , , , , 
1643109633.318381, -0.031873, -10.483012, 2.290204, , , , , , 
1643109633.338482, -0.114622, -10.586412, 2.426074, , , , , , 
1643109633.358425, -0.273388, -10.309432, 2.556708, , , , , , 
1643109633.378383, -0.278326, -10.021530, 2.797026, , , , , , 
1643109633.398450, -0.273388, -9.886407, 2.828300, , , , , , 
1643109633.418380, -0.132429, -9.881768, 2.558204, , , , , , 
1643109633.437616, 0.100556, -11.595268, 2.054973, , , , , , 
1643109633.458562, 1.052102, -12.600384, 2.617311, , , , , , 
1643109633.478394, 1.207725, -11.709891, 1.106869, , , , , , 
1643109633.498435, 1.244536, -10.323498, 0.692972, , , , , , 
1643109633.518410, 1.196203, -9.710283, 0.208146, , , , , , 
1643109633.537613, 1.345990, -10.093954, 0.939724, , , , , , 
1643109633.558392, 1.831564, -10.164284, 0.361824, , , , , , 
1643109633.578390, 2.274641, -10.305242, 0.253486, , , , , , 
1643109633.598459, 2.048389, -10.562619, 0.386364, , , , , , 
1643109633.618430, 1.382053, -10.891223, 0.894234, , , , , , 
1643109633.637896, 0.813729, -10.821343, 0.856526, , , , , , 
1643109633.658385, 0.328455, -10.540024, 0.950797, , , , , , 
1643109633.678419, 0.157868, -9.784354, 1.209371, , , , , , 
1643109633.698394, 0.342670, -9.088539, 1.241543, , , , , , 
1643109633.718464, 0.430358, -8.555380, 1.305289, , , , , , 
1643109633.737812, 0.458639, -8.121880, 1.217302, , , , , , 
1643109633.758368, 0.468366, -7.959224, 1.171064, , , , , , 
1643109633.778388, 0.674566, -8.132355, 1.207575, , , , , , 
1643109633.798364, 0.936881, -8.462605, 1.256956, , , , , , 
1643109633.817617, 0.986261, -8.756344, 1.402553, , , , , , 
1643109633.838383, 0.945111, -8.823531, 1.404349, , , , , , 
1643109633.858404, 0.764648, -8.722825, 1.226879, , , , , , 
1643109633.878409, 0.853234, -8.704419, 1.796250, , , , , , 
1643109633.898310, 0.841861, -8.694843, 1.715745, , , , , , 
1643109633.918311, 0.771382, -8.812607, 1.778443, , , , , , 
1643109633.938327, 0.754473, -9.016713, 1.736993, , , , , , 
1643109633.958299, 0.695964, -9.377040, 1.813308, , , , , , 
1643109633.978297, 0.475249, -9.656563, 1.967286, , , , , , 
1643109633.997668, 0.355689, -9.811887, 1.957709, , , , , , 
1643109634.018005, 0.280421, -10.171466, 2.031480, , , , , , 
1643109634.038322, 0.357185, -10.333524, 2.247108, , , , , , 
1643109634.058312, 0.469862, -10.430938, 2.425775, , , , , , 
1643109634.078399, 0.594361, -10.412682, 2.374449, , , , , , 
1643109634.098320, 0.672771, -10.140791, 2.493561, , , , , , 
1643109634.118311, 0.526874, -9.933543, 2.310704, , , , , , 
1643109634.138180, -0.134375, -10.532392, 2.040758, , , , , , 
1643109634.157663, -0.520888, -12.316821, 2.898331, , , , , , 
1643109634.178332, -0.329951, -12.232575, 2.470966, , , , , , 
1643109634.197459, 0.023792, -12.239608, 1.497872, , , , , , 
1643109634.218322, -0.055067, -10.432285, 0.748637, , , , , , 
1643109634.238057, -0.493056, -9.509021, 0.032172, , , , , , 
1643109634.257690, -0.727837, -9.235334, 0.510115, , , , , , 
1643109634.278412, -0.789338, -9.259425, 0.520739, , , , , , 
1643109634.297664, -0.630573, -9.777321, 0.413000, , , , , , 
1643109634.318452, -0.877325, -10.416723, 0.394295, , , , , , 
1643109634.338404, -0.461482, -11.217433, 0.488716, , , , , , 
1643109634.358428, -0.094571, -11.451915, 0.479289, , , , , , 
1643109634.378469, -0.040103, -10.593594, 0.614711, , , , , , 
1643109634.398387, -0.239570, -9.901071, 0.841861, , , , , , 
1643109634.418462, -0.345513, -9.185654, 1.085471, , , , , , 
1643109634.438365, -0.191835, -8.342147, 1.135450, , , , , , 
1643109634.458371, -0.076166, -7.821857, 1.104625, , , , , , 
1643109634.478476, -0.061351, -7.821408, 1.150414, , , , , , 
1643109634.498463, -0.230292, -8.258799, 1.283142, , , , , , 
1643109634.518342, -0.219069, -8.698434, 1.180940, , , , , , 
1643109634.538380, -0.285060, -9.105149, 0.768838, , , , , , 
1643109634.558389, -0.079906, -9.423428, 1.288230, , , , , , 
1643109634.578447, -0.212036, -9.206154, 1.393276, , , , , , 
1643109634.598379, -0.434099, -9.056367, 1.559523, , , , , , 
1643109634.617489, -0.536301, -8.914810, 1.559373, , , , , , 
1643109634.638391, -0.547225, -8.882039, 1.678934, , , , , , 
1643109634.658385, -0.438887, -9.005341, 1.985990, , , , , , 
1643109634.678394, -0.267552, -9.267356, 2.016666, , , , , , 
1643109634.698388, -0.188244, -9.476849, 2.065149, , , , , , 
1643109634.718389, -0.005387, -9.803957, 2.195483, , , , , , 
1643109634.738419, 0.146046, -9.960777, 2.173486, , , , , , 
1643109634.758511, 0.118962, -10.066720, 2.136675, , , , , , 
1643109634.778469, 0.201711, -10.070910, 2.134880, , , , , , 
1643109634.798424, 0.130185, -9.907805, 2.519299, , , , , , 
1643109634.818501, -0.044442, -9.801862, 2.705747, , , , , , 
1643109634.838501, 0.040701, -9.891345, 2.437896, , , , , , 
1643109634.858431, 0.149039, -11.592276, 1.511489, , , , , , 
1643109634.878367, 1.112556, -13.637223, 2.805705, , , , , , 
1643109634.898550, 1.430386, -11.904420, 0.781707, , , , , , 
1643109634.918479, 1.264887, -10.772860, 0.728585, , , , , , 
1643109634.938404, 0.926855, -9.795876, 0.495001, , , , , , 
1643109634.958393, 0.869544, -10.050110, 1.273566, , , , , , 
1643109634.978392, 1.412878, -10.370335, 0.805050, , , , , , 
1643109634.998433, 1.793706, -10.090363, 0.643741, , , , , , 
1643109635.018517, 1.865233, -10.193912, 0.759560, , , , , , 
1643109635.038429, 1.447145, -10.688015, 1.108515, , , , , , 
1643109635.058457, 0.980426, -10.632500, 1.130512, , , , , , 
1643109635.078393, 0.611868, -10.236858, 1.241543, , , , , , 
1643109635.098460, 0.397587, -9.479542, 1.315614, , , , , , 
1643109635.118429, 0.458939, -8.810064, 1.340005, , , , , , 
1643109635.138377, 0.611569, -8.214656, 1.343147, , , , , , 
1643109635.158456, 0.474800, -7.821258, 1.317260, , , , , , 
1643109635.178391, 0.485574, -7.918672, 0.910395, , , , , , 
1643109635.198392, 0.729932, -8.076839, 0.804152, , , , , , 
1643109635.218335, 0.905158, -8.571392, 1.099687, , , , , , 
1643109635.238351, 0.924611, -8.893561, 1.294665, , , , , , 
1643109635.258458, 0.908749, -9.031228, 1.329530, , , , , , 
1643109635.278395, 0.924162, -9.011176, 1.291821, , , , , , 
1643109635.298416, 1.074548, -9.160515, 1.274015, , , , , , 
1643109635.318432, 1.046116, -9.215133, 1.511340, , , , , , 
1643109635.338485, 0.890643, -9.281721, 1.587805, , , , , , 
1643109635.358398, 0.663942, -9.310003, 1.618031, , , , , , 
1643109635.378397, 0.536451, -9.608530, 1.626860, , , , , , 
1643109635.398439, 0.367959, -9.750386, 1.715146, , , , , , 
1643109635.418366, 0.295534, -10.133608, 1.935263, , , , , , 
1643109635.438462, 0.318429, -10.454282, 2.096872, , , , , , 
1643109635.458388, 0.321721, -10.593594, 2.168997, , , , , , 
1643109635.478441, 0.359430, -10.611251, 2.260725, , , , , , 
1643109635.498400, 0.475249, -10.438420, 2.345569, , , , , , 
1643109635.518403, 0.699406, -10.067468, 2.364274, , , , , , 
1643109635.538508, 0.433799, -10.004770, 2.107945, , , , , , 
1643109635.558415, -0.441880, -11.240328, 1.799542, , , , , , 
1643109635.578380, -0.723797, -12.244546, 2.527828, , , , , , 
1643109635.598440, -0.760309, -11.884518, 1.385046, , , , , , 
1643109635.618339, -0.339528, -11.442189, 1.458069, , , , , , 
1643109635.638349, -0.482132, -9.620650, 0.355838, , , , , , 
1643109635.658411, -0.883909, -8.898050, -0.026187, , , , , , 
1643109635.678320, -0.966659, -8.854356, 0.922516, , , , , , 
1643109635.697922, -1.155801, -9.296386, 0.676063, , , , , , 
1643109635.718324, -1.200243, -9.829545, 0.509067, , , , , , 
1643109635.738406, -1.147272, -10.418967, 0.621445, , , , , , 
1643109635.758319, -0.581342, -10.871770, 0.771382, , , , , , 
1643109635.777486, -0.186598, -10.968287, 0.930596, , , , , , 
1643109635.798458, -0.229694, -10.184635, 1.101033, , , , , , 
1643109635.818345, -0.465971, -9.484331, 1.517924, , , , , , 
1643109635.838367, -0.701202, -8.839841, 1.446247, , , , , , 
1643109635.858385, -0.547823, -8.360552, 1.291522, , , , , , 
1643109635.878390, -0.595109, -8.295011, 1.204283, , , , , , 
1643109635.898321, -0.443526, -8.428338, 1.536778, , , , , , 
1643109635.917671, -0.449960, -8.613440, 1.637933, , , , , , 
1643109635.938327, -0.465971, -8.733898, 1.377863, , , , , , 
1643109635.958329, -0.428861, -8.855553, 1.329979, , , , , , 
1643109635.978310, -0.410755, -8.988880, 1.446547, , , , , , 
1643109635.998457, -0.500987, -9.140463, 1.694796, , , , , , 
1643109636.018467, -0.677260, -9.124153, 1.716343, , , , , , 
1643109636.038403, -0.762553, -9.053225, 1.669357, , , , , , 
1643109636.058401, -0.800412, -9.098565, 1.689259, , , , , , 
1643109636.078453, -0.763900, -9.358485, 1.788469, , , , , , 
1643109636.098402, -0.605583, -9.653421, 1.998859, , , , , , 
1643109636.118480, -0.401178, -9.756222, 1.925986, , , , , , 
1643109636.138373, -0.273388, -9.986215, 1.813757, , , , , , 
1643109636.158469, 0.038158, -10.349535, 2.195932, , , , , , 
1643109636.178444, 0.239570, -10.441413, 2.268955, , , , , , 
1643109636.198465, 0.103100, -10.344597, 2.385373, , , , , , 
1643109636.218147, -0.140360, -10.113706, 2.710835, , , , , , 
1643109636.238423, -0.389956, -9.979182, 2.840720, , , , , , 
1643109636.258407, -0.583437, -9.835380, 2.685247, , , , , , 
1643109636.278371, -0.501286, -9.569175, 2.525284, , , , , , 
1643109636.298471, -0.285209, -9.543288, 1.633294, , , , , , 
1643109636.318449, 0.357185, -11.867309, 2.630031, , , , , , 
1643109636.338390, 1.446247, -11.469124, 1.563563, , , , , , 
1643109636.358401, 1.067964, -11.026496, 0.973991, , , , , , 
1643109636.378413, 0.910545, -9.947010, 0.601992, , , , , , 
1643109636.398481, 0.865205, -9.697115, 1.070657, , , , , , 
1643109636.418461, 1.570746, -9.633819, 0.346561, , , , , , 
1643109636.438393, 2.296488, -9.888651, 0.303914, , , , , , 
1643109636.458446, 2.569727, -10.496928, 0.501885, , , , , , 
1643109636.478386, 1.733402, -11.187207, 1.120636, , , , , , 
1643109636.498456, 0.987608, -11.627141, 1.246332, , , , , , 
1643109636.518475, 0.698359, -11.102961, 0.874781, , , , , , 
1643109636.538306, 0.414047, -10.232668, 0.910395, , , , , , 
1643109636.558406, 0.472256, -9.273641, 1.360056, , , , , , 
1643109636.578525, 0.703446, -8.449886, 1.354220, , , , , , 
1643109636.598459, 0.763152, -7.824251, 1.353771, , , , , , 
1643109636.618477, 0.663493, -7.552210, 1.071106, , , , , , 
1643109636.638491, 0.687884, -7.860314, 0.949451, , , , , , 
1643109636.658458, 0.880617, -8.369082, 0.975787, , , , , , 
1643109636.678446, 1.041927, -8.824129, 1.025018, , , , , , 
1643109636.698469, 1.165228, -9.166351, 1.070358, , , , , , 
1643109636.718406, 1.167024, -9.263765, 1.266832, , , , , , 
1643109636.738494, 1.151312, -9.125200, 1.431284, , , , , , 
1643109636.758490, 1.088314, -9.042301, 1.433079, , , , , , 
1643109636.777495, 0.976385, -9.030480, 1.469591, , , , , , 
1643109636.798450, 0.920870, -8.902390, 1.798794, , , , , , 
1643109636.818496, 0.743849, -9.040805, 1.974618, , , , , , 
1643109636.838464, 0.534356, -9.406369, 1.927931, , , , , , 
1643109636.858472, 0.381726, -9.797372, 2.083404, , , , , , 
1643109636.878432, 0.321571, -10.158598, 2.276287, , , , , , 
1643109636.898473, 0.378583, -10.362404, 2.375347, , , , , , 
1643109636.918449, 0.630124, -10.494384, 2.268356, , , , , , 
1643109636.938408, 0.915782, -10.372879, 2.410512, , , , , , 
1643109636.958406, 0.953491, -10.017639, 2.623746, , , , , , 
1643109636.978404, 0.682198, -9.862166, 2.687192, , , , , , 
1643109636.998472, -0.081253, -10.248380, 2.315492, , , , , , 
1643109637.018404, -0.653467, -11.996596, 2.611775, , , , , , 
1643109637.038439, -0.154276, -12.077401, 2.385822, , , , , , 
1643109637.058448, 0.049231, -12.087426, 1.224933, , , , , , 
1643109637.078404, -0.033668, -10.611251, 1.315614, , , , , , 
1643109637.098485, -0.732476, -10.042778, 0.660201, , , , , , 
1643109637.118410, -1.133056, -9.158420, 0.883909, , , , , , 
1643109637.138406, -1.345392, -8.828619, 0.623241, , , , , , 
1643109637.158448, -1.263690, -9.488072, 0.966958, , , , , , 
1643109637.178406, -1.393575, -10.392780, 0.747141, , , , , , 
1643109637.198476, -1.029806, -11.164312, 0.678756, , , , , , 
1643109637.218446, -0.833033, -10.843639, 0.249895, , , , , , 
1643109637.238468, -0.295235, -10.392182, 1.118092, , , , , , 
1643109637.258408, -0.388908, -9.644144, 1.214010, , , , , , 
1643109637.278408, -0.588974, -8.960000, 1.203535, , , , , , 
1643109637.297553, -0.685191, -8.673145, 1.103128, , , , , , 
1643109637.318408, -0.700154, -8.201188, 1.301249, , , , , , 
1643109637.338395, -0.688483, -8.037185, 1.456124, , , , , , 
1643109637.358376, -0.847847, -8.383297, 1.277007, , , , , , 
1643109637.378380, -0.874333, -8.669255, 1.315015, , , , , , 
1643109637.398492, -0.831536, -8.833706, 1.305588, , , , , , 
1643109637.418411, -0.862661, -8.951770, 1.338209, , , , , , 
1643109637.438438, -0.854431, -9.109638, 1.400907, , , , , , 
1643109637.458441, -1.176152, -9.288904, 1.351078, , , , , , 
1643109637.478406, -1.269226, -9.226804, 1.693598, , , , , , 
1643109637.498433, -1.253813, -9.183709, 1.651850, , , , , , 
1643109637.518362, -1.243488, -9.100061, 1.917007, , , , , , 
1643109637.538351, -1.147571, -9.098864, 1.857751, , , , , , 
1643109637.558419, -0.862362, -9.236231, 1.915062, , , , , , 
1643109637.578543, -0.580893, -9.453805, 1.968483, , , , , , 
1643109637.598450, -0.398485, -9.693075, 2.149993, , , , , , 
1643109637.618492, -0.348656, -9.963321, 2.204012, , , , , , 
1643109637.637915, -0.374393, -10.130166, 2.302175, , , , , , 
1643109637.658456, -0.394295, -10.126874, 2.382081, , , , , , 
1643109637.678456, -0.500538, -9.955539, 2.536507, , , , , , 
1643109637.698454, -0.580744, -9.821314, 2.797625, , , , , , 
1643109637.718499, -0.523283, -9.686042, 2.914342, , , , , , 
1643109637.738446, -0.479289, -9.484181, 2.617611, , , , , , 
1643109637.758618, -0.319027, -9.764003, 2.148197, , , , , , 
1643109637.778484, 0.182259, -12.021885, 2.412757, , , , , , 
1643109637.798493, 1.141735, -12.653206, 2.376694, , , , , , 
1643109637.818412, 0.784700, -11.350312, 0.703147, , , , , , 
1643109637.838485, 0.564882, -10.505458, 0.263213, , , , , , 
1643109637.858452, 0.452354, -10.166379, 1.020828, , , , , , 
1643109637.878449, 0.869245, -10.011654, 0.916680, , , , , , 
1643109637.898455, 1.427692, -10.395624, 0.329951, , , , , , 
1643109637.918480, 1.929577, -10.470891, -0.325462, , , , , , 
1643109637.938390, 1.885733, -10.838701, 0.278775, , , , , , 
1643109637.958416, 1.026963, -10.924144, 0.496946, , , , , , 
1643109637.978458, 0.332195, -10.754305, 0.646584, , , , , , 
1643109637.998450, 0.064643, -10.502315, 0.717213, , , , , , 
1643109638.018506, 0.081552, -9.781661, 0.774225, , , , , , 
1643109638.038416, 0.080206, -9.077316, 0.906205, , , , , , 
1643109638.057797, 0.095618, -8.498219, 0.892588, , , , , , 
1643109638.078462, 0.242413, -8.124873, 0.818817, , , , , , 
1643109638.098453, 0.297480, -8.190115, 0.814926, , , , , , 
1643109638.118514, 0.464625, -8.551789, 0.783502, , , , , , 
1643109638.138452, 0.736816, -8.889521, 0.842909, , , , , , 
1643109638.158411, 0.816722, -9.092430, 0.923264, , , , , , 
1643109638.178493, 0.720056, -9.112182, 1.146224, , , , , , 
1643109638.198446, 0.444274, -9.063550, 1.145177, , , , , , 
1643109638.218479, 0.485873, -8.932168, 1.200991, , , , , , 
1643109638.238495, 0.412401, -8.762030, 1.388188, , , , , , 
1643109638.258578, 0.520888, -8.813056, 1.478719, , , , , , 
1643109638.278457, 0.547973, -8.943690, 1.606809, , , , , , 
1643109638.298424, 0.448015, -9.153033, 1.684770, , , , , , 
1643109638.318455, 0.318878, -9.423428, 2.062904, , , , , , 
1643109638.338504, 0.166098, -9.669133, 2.271648, , , , , , 
1643109638.358411, 0.038307, -9.990405, 2.265364, , , , , , 
1643109638.378481, 0.191536, -10.192266, 2.259977, , , , , , 
1643109638.398489, 0.300772, -10.461614, 2.365322, , , , , , 
1643109638.418413, 0.460585, -10.411934, 2.464681, , , , , , 
1643109638.438455, 0.548871, -10.105925, 2.460940, , , , , , 
1643109638.458411, 0.333243, -9.772982, 2.511817, , , , , , 
1643109638.478413, 0.012270, -9.555109, 2.404826, , , , , , 
1643109638.498387, -0.458639, -10.749367, 2.058265, , , , , , 
1643109638.518378, -0.194529, -12.195165, 3.037344, , , , , , 
1643109638.538438, -0.244508, -11.357943, 1.324742, , , , , , 
1643109638.558503, -0.335787, -11.800571, 1.399261, , , , , , 
1643109638.577877, -0.530465, -10.886884, 0.561740, , , , , , 
1643109638.598437, -0.628478, -9.806800, 0.044442, , , , , , 
1643109638.618123, -0.694318, -9.816227, 0.474650, , , , , , 
1643109638.638463, -0.865504, -9.954043, 0.861464, , , , , , 
1643109638.658404, -1.501314, -10.484957, 0.401777, , , , , , 
1643109638.678418, -1.659481, -10.980707, 0.158765, , , , , , 
1643109638.698475, -1.148169, -11.064953, 0.108637, , , , , , 
1643109638.718421, -0.685789, -10.483611, 0.621445, , , , , , 
1643109638.738493, -0.541987, -9.521141, 0.770484, , , , , , 
1643109638.758431, -0.377835, -8.777293, 0.743699, , , , , , 
1643109638.778417, -0.318130, -8.230367, 0.844854, , , , , , 
1643109638.798454, -0.270694, -7.896825, 0.776170, , , , , , 
1643109638.818417, -0.360028, -8.001572, 0.810138, , , , , , 
1643109638.838493, -0.514005, -8.411130, 0.980276, , , , , , 
1643109638.858445, -0.594211, -8.721628, 0.974290, , , , , , 
1643109638.878507, -0.641047, -9.122806, 1.082030, , , , , , 
1643109638.898459, -0.619051, -9.362226, 1.244237, , , , , , 
1643109638.918482, -0.716614, -9.326164, 1.283741, , , , , , 
1643109638.938458, -0.864606, -9.332598, 1.422904, , , , , , 
1643109638.958492, -0.926406, -9.258827, 1.611148, , , , , , 
1643109638.978489, -0.827795, -9.183858, 1.665766, , , , , , 
1643109638.998458, -0.714520, -9.135076, 1.683273, , , , , , 
1643109639.018466, -0.746243, -9.169643, 1.689708, , , , , , 
1643109639.038219, -0.662446, -9.270498, 1.805827, , , , , , 
1643109639.058458, -0.438737, -9.266907, 1.979855, , , , , , 
1643109639.078460, -0.197073, -9.422231, 2.136675, , , , , , 
1643109639.098484, -0.106692, -9.602694, 2.217031, , , , , , 
1643109639.118462, -0.048483, -9.786748, 2.299331, , , , , , 
1643109639.138457, -0.145148, -9.805303, 2.331803, , , , , , 
1643109639.157997, -0.319626, -9.668534, 2.514211, , , , , , 
1643109639.178492, -0.420931, -9.571420, 2.581249, , , , , , 
1643109639.198421, -0.469413, -9.673473, 2.553266, , , , , , 
1643109639.218482, -0.146196, -10.855310, 1.522114, , , , , , 
1643109639.238455, 0.764499, -13.572580, 3.649960, , , , , , 
1643109639.257539, 0.928651, -12.281955, 1.115548, , , , , , 
1643109639.278480, 0.650624, -11.416152, 0.504428, , , , , , 
1643109639.298518, 0.687435, -10.843190, 0.664541, , , , , , 
1643109639.318420, 0.922815, -10.288782, 1.394024, , , , , , 
1643109639.338460, 1.478719, -9.320777, 0.850391, , , , , , 
1643109639.358482, 1.813159, -9.429114, 0.610821, , , , , , 
1643109639.378420, 2.123358, -9.976339, 0.090680, , , , , , 
1643109639.398484, 2.087445, -10.441562, 0.200215, , , , , , 
1643109639.418421, 1.749114, -10.801142, 0.546626, , , , , , 
1643109639.438458, 1.027412, -10.647015, 0.641945, , , , , , 
1643109639.458484, 0.587926, -10.164733, 0.632967, , , , , , 
1643109639.478420, 0.414945, -9.590723, 0.518494, , , , , , 
1643109639.498512, 0.383820, -9.171289, 0.623390, , , , , , 
1643109639.518399, 0.434847, -8.776395, 0.549170, , , , , , 
1643109639.538395, 0.450260, -8.449138, 0.736067, , , , , , 
1643109639.558472, 0.481833, -8.542512, 0.817919, , , , , , 
1643109639.578407, 0.598550, -8.696189, 0.997484, , , , , , 
1643109639.598553, 0.774973, -9.058013, 0.802357, , , , , , 
1643109639.618521, 0.868197, -9.376292, 0.783802, , , , , , 
1643109639.638511, 0.910994, -9.471312, 1.033846, , , , , , 
1643109639.658517, 0.752827, -9.352799, 1.164330, , , , , , 
1643109639.678426, 0.644040, -9.095273, 1.311424, , , , , , 
1643109639.698498, 0.712275, -8.892963, 1.398513, , , , , , 
1643109639.718512, 0.716764, -8.859893, 1.426196, , , , , , 
1643109639.738466, 0.804302, -8.912865, 1.302146, , , , , , 
1643109639.758500, 0.920571, -8.952967, 1.314417, , , , , , 
1643109639.778465, 0.648080, -9.276933, 1.405396, , , , , , 
1643109639.798487, 0.568773, -9.161113, 1.704223, , , , , , 
1643109639.818412, 0.492158, -9.257330, 1.982100, , , , , , 
1643109639.838475, 0.440832, -9.577405, 2.142810, , , , , , 
1643109639.858464, 0.303764, -9.882816, 2.395848, , , , , , 
1643109639.878466, 0.520440, -10.101137, 2.415600, , , , , , 
1643109639.898434, 0.776918, -10.187927, 2.431162, , , , , , 
1643109639.918464, 1.054197, -9.878027, 2.530970, , , , , , 
1643109639.938426, 0.909348, -10.002077, 2.338088, , , , , , 
1643109639.958428, 0.429909, -11.135731, 2.260426, , , , , , 
1643109639.978496, 0.123301, -12.941408, 2.957288, , , , , , 
1643109639.998428, -0.051176, -12.894572, 2.122011, , , , , , 
1643109640.018495, -0.308852, -11.947814, 1.892766, , , , , , 
1643109640.038465, -0.777068, -11.044602, 1.026813, , , , , , 
1643109640.058472, -0.988656, -10.111462, 0.867000, , , , , , 
1643109640.078454, -0.675165, -8.902240, 0.343119, , , , , , 
1643109640.098425, -0.400580, -8.354267, 0.348805, , , , , , 
1643109640.118464, -0.578200, -8.793304, 0.463877, , , , , , 
1643109640.138486, -1.149366, -9.555259, 0.591817, , , , , , 
1643109640.158467, -1.253065, -10.443508, 0.955137, , , , , , 
1643109640.178469, -0.991050, -11.012131, 1.136198, , , , , , 
1643109640.198425, -0.654515, -10.818499, 1.158943, , , , , , 
1643109640.218459, -0.380080, -9.948207, 1.014842, , , , , , 
1643109640.238490, -0.261417, -9.158270, 1.086070, , , , , , 
1643109640.258429, -0.312144, -8.407089, 1.100884, , , , , , 
1643109640.278429, -0.084845, -8.107066, 1.213860, , , , , , 
1643109640.298448, -0.120608, -8.148516, 1.109413, , , , , , 
1643109640.318036, -0.407314, -8.569895, 1.178546, , , , , , 
1643109640.338474, -0.544082, -9.133879, 1.242740, , , , , , 
1643109640.358428, -0.663343, -9.309853, 1.263690, , , , , , 
1643109640.378438, -0.566977, -9.509769, 1.261445, , , , , , 
1643109640.398524, -0.457293, -9.400234, 1.367538, , , , , , 
1643109640.417751, -0.546776, -9.514557, 1.461810, , , , , , 
1643109640.438503, -0.581941, -9.394398, 1.519720, , , , , , 
1643109640.458435, -0.441281, -9.391555, 1.572242, , , , , , 
1643109640.478536, -0.511910, -9.314791, 1.445499, , , , , , 
1643109640.498433, -0.255132, -9.311948, 1.452532, , , , , , 
1643109640.518430, -0.343119, -9.257031, 1.317409, , , , , , 
1643109640.538474, -0.239271, -9.148544, 1.246481, , , , , , 
1643109640.558431, -0.048931, -9.132682, 1.347187, , , , , , 
1643109640.578520, -0.078709, -9.493458, 1.396268, , , , , , 
1643109640.598430, -0.082001, -9.717915, 2.081160, , , , , , 
1643109640.618492, -0.410755, -9.907206, 1.991677, , , , , , 
1643109640.638470, -0.396689, -10.124480, 1.879448, , , , , , 
1643109640.658468, -0.432752, -9.776274, 2.583344, , , , , , 
1643109640.678429, -0.605883, -10.233267, 2.302474, , , , , , 
1643109640.698489, -0.044742, -11.972804, 1.975815, , , , , , 
1643109640.718514, 0.547075, -13.161226, 2.572121, , , , , , 
1643109640.738538, 0.825401, -11.729643, 1.523311, , , , , , 
1643109640.758441, 1.317858, -10.423606, 1.396867, , , , , , 
1643109640.778502, 1.199196, -9.431209, 0.855029, , , , , , 
1643109640.798430, 1.317260, -10.187178, 0.653916, , , , , , 
1643109640.818498, 2.022352, -10.521918, 0.207398, , , , , , 
1643109640.838434, 2.693327, -9.868301, 0.036811, , , , , , 
1643109640.858436, 2.178574, -9.939827, -0.187047, , , , , , 
1643109640.878519, 1.693898, -10.492290, 0.346561, , , , , , 
1643109640.898435, 1.280299, -10.595988, 0.783353, , , , , , 
1643109640.918517, 0.521487, -10.762385, 0.692074, , , , , , 
1643109640.937646, 0.687136, -10.200496, 0.975637, , , , , , 
1643109640.958436, 1.434725, -9.635165, 0.750881, , , , , , 
1643109640.978433, 1.596484, -9.061006, 0.752228, , , , , , 
1643109640.998430, 1.484255, -8.934412, 0.870592, , , , , , 
1643109641.018471, 1.743877, -8.914511, 0.509067, , , , , , 
1643109641.038485, 1.417966, -8.922292, 0.762104, , , , , , 
1643109641.058470, 1.228974, -9.141212, 0.439785, , , , , , 
1643109641.078506, 1.130362, -9.462484, 0.245705, , , , , , 
1643109641.098435, 1.807473, -9.704148, 0.437241, , , , , , 
1643109641.118476, 1.740435, -9.684546, 0.558747, , , , , , 
1643109641.138478, 1.419013, -9.500940, 0.434697, , , , , , 
1643109641.158422, 1.800290, -9.608081, 0.446968, , , , , , 
1643109641.178502, 2.103905, -10.012851, 0.553360, , , , , , 
1643109641.198430, 1.778144, -9.793033, 1.095048, , , , , , 
1643109641.218432, 1.245733, -9.335591, 1.151761, , , , , , 
1643109641.238481, 0.642394, -9.077017, 0.661249, , , , , , 
1643109641.258449, 0.855478, -9.258827, 1.092654, , , , , , 
1643109641.278510, 1.173009, -9.434352, 1.171662, , , , , , 
1643109641.298457, 1.251719, -9.594314, 1.073650, , , , , , 
1643109641.318431, 1.178695, -9.534160, 1.208324, , , , , , 
1643109641.338474, 1.468394, -9.832388, 1.626860, , , , , , 
1643109641.358447, 1.148918, -10.247183, 1.933767, , , , , , 
1643109641.378501, 0.953192, -10.445453, 2.399140, , , , , , 
1643109641.398436, 0.584036, -9.843012, 2.068291, , , , , , 
1643109641.418436, 0.312892, -9.706393, 1.110910, , , , , , 
1643109641.438406, -0.276680, -9.547328, 1.279850, , , , , , 
1643109641.458489, 0.128988, -9.371953, 1.564611, , , , , , 
1643109641.478420, -0.109535, -8.921843, 1.289128, , , , , , 
1643109641.498412, 0.145747, -8.996063, 1.230919, , , , , , 
1643109641.518387, 0.187197, -9.111883, 1.335366, , , , , , 
1643109641.538484, 0.175974, -9.582942, 0.916081, , , , , , 
1643109641.558535, 0.128389, -10.114155, 0.524330, , , , , , 
1643109641.578628, -0.195427, -10.822240, -0.058059, , , , , , 
1643109641.598525, 0.261866, -10.221745, 0.133177, , , , , , 
1643109641.618508, 0.191985, -10.261997, 0.395642, , , , , , 
1643109641.638479, 0.303315, -9.891345, 1.030853, , , , , , 
1643109641.658441, 0.417788, -9.561544, 1.360954, , , , , , 
1643109641.678501, 0.514604, -9.491513, 1.682525, , , , , , 
1643109641.698548, -0.229544, -9.663896, 0.926107, , , , , , 
1643109641.718517, -0.824204, -9.515006, -0.843657, , , , , , 
1643109641.738530, -1.357662, -9.545832, -1.619977, , , , , , 
1643109641.758465, -0.877026, -9.778967, -1.497872, , , , , , 
1643109641.778496, -0.165649, -9.762058, -1.242890, , , , , , 
1643109641.797733, 0.300173, -9.918579, -1.033996, , , , , , 
1643109641.818520, -0.409109, -9.623793, -1.991976, , , , , , 
1643109641.838476, -0.894234, -9.713126, -3.029413, , , , , , 
1643109641.858495, -0.706738, -9.661202, -2.823213, , , , , , 
1643109641.878461, -0.018405, -9.816975, -2.052130, , , , , , 
1643109641.898442, 0.367809, -9.690232, -1.549348, , , , , , 
1643109641.918484, -0.125696, -9.216928, -1.401655, , , , , , 
1643109641.937868, -1.550694, -9.020604, -2.559701, , , , , , 
1643109641.958432, -1.561618, -9.011625, -2.781015, , , , , , 
1643109641.978467, -1.330727, -8.904934, -3.383905, , , , , , 
1643109641.998441, -0.760907, -9.033921, -3.242348, , , , , , 
1643109642.018532, -1.064522, -8.665364, -3.628263, , , , , , 
1643109642.038476, -1.275960, -8.431630, -4.743961, , , , , , 
1643109642.058477, -0.985513, -8.426243, -4.712238, , , , , , 
1643109642.078443, -1.027113, -8.383746, -4.253748, , , , , , 
1643109642.098441, -0.940023, -8.530690, -3.920056, , , , , , 
1643109642.118086, -0.360178, -8.498069, -4.362385, , , , , , 
1643109642.138480, -1.043722, -8.031649, -6.731448, , , , , , 
1643109642.158549, -1.924190, -7.331794, -7.331345, , , , , , 
1643109642.178473, -2.168847, -7.518691, -5.971289, , , , , , 
1643109642.198505, -2.420538, -7.010821, -4.602404, , , , , , 
1643109642.218437, -1.488894, -7.055413, -4.121768, , , , , , 
1643109642.238432, 0.110732, -7.673716, -5.673210, , , , , , 
1643109642.258390, 0.580893, -7.302315, -7.952790, , , , , , 
1643109642.278528, 0.665438, -6.859837, -8.649053, , , , , , 
1643109642.298436, 0.085443, -5.760449, -8.663568, , , , , , 
1643109642.318423, 0.284012, -5.483919, -9.509919, , , , , , 
1643109642.338438, 0.734122, -5.638195, -9.923816, , , , , , 
1643109642.358546, 0.687286, -5.358972, -9.526828, , , , , , 
1643109642.378429, 0.970849, -5.302259, -9.298032, , , , , , 
1643109642.398452, 1.194108, -5.426757, -9.131335, , , , , , 
1643109642.418522, 0.947056, -5.305551, -8.983494, , , , , , 
1643109642.437892, 0.841263, -5.477933, -8.540566, , , , , , 
1643109642.458548, 0.771681, -5.575796, -8.105869, , , , , , 
1643109642.478496, 0.739060, -5.867141, -7.824401, , , , , , 
1643109642.498443, 0.622492, -5.746383, -7.785794, , , , , , 
1643109642.518461, 0.512958, -5.661838, -7.678803, , , , , , 
1643109642.538498, 0.484377, -5.665130, -7.892935, , , , , , 
1643109642.558561, 0.595408, -5.777807, -8.200141, , , , , , 
1643109642.578333, 0.358981, -5.638644, -8.153304, , , , , , 
1643109642.598441, 0.106692, -5.805041, -8.028506, , , , , , 
1643109642.618488, 0.251541, -5.837064, -8.260445, , , , , , 
1643109642.638513, 0.405668, -5.575946, -8.433725, , , , , , 
1643109642.658542, 0.489614, -5.463269, -8.472182, , , , , , 
1643109642.678501, 0.495749, -5.608567, -8.371476, , , , , , 
1643109642.697810, 0.503979, -5.194370, -7.984363, , , , , , 
1643109642.718522, 0.837971, -5.500678, -8.226327, , , , , , 
1643109642.738451, 0.802806, -5.977274, -7.551611, , , , , , 
1643109642.758444, 0.505625, -5.937470, -7.367407, , , , , , 
1643109642.778520, 0.541838, -5.692364, -8.279748, , , , , , 
1643109642.798442, 0.130484, -5.120150, -8.760833, , , , , , 