SamplingTime, AccelerationX, AccelerationY, AccelerationZ, GyroX, GyroY, GyroZ, MagneticFieldX, MagneticFieldY, MagneticFieldZ
1643109669.794184, 0.479439, -7.916727, -5.519084, , , , , , 
1643109669.814105, 0.462829, -8.043320, -5.637597, , , , , , 
1643109669.834142, 0.032172, -8.096292, -6.129306, , , , , , 
1643109669.854139, -0.340276, -8.165275, -5.544223, , , , , , 
1643109669.874108, -0.495151, -8.124873, -5.902755, , , , , , 
1643109669.893175, -0.348506, -8.269573, -7.359177, , , , , , 
1643109669.914196, 0.360477, -8.480711, -7.583634, , , , , , 
1643109669.934206, 0.309750, -8.140286, -6.529886, , , , , , 
1643109669.954191, 0.006135, -6.795343, -6.537817, , , , , , 
1643109669.974143, 0.330699, -6.411672, -7.087435, , , , , , 
1643109669.994214, 0.505326, -7.350947, -7.452402, , , , , , 
1643109670.014201, -0.687734, -7.344663, -6.625055, , , , , , 
1643109670.034227, -1.040430, -6.867917, -6.237644, , , , , , 
1643109670.053902, -0.414945, -7.111078, -5.824344, , , , , , 
1643109670.074149, -0.109086, -7.597849, -5.307197, , , , , , 
1643109670.094214, 0.049680, -8.278401, -5.595100, , , , , , 
1643109670.114192, -0.507421, -8.418462, -5.519084, , , , , , 
1643109670.134198, -1.641824, -8.769961, -5.590311, , , , , , 
1643109670.154152, -1.474828, -9.364022, -4.685153, , , , , , 
1643109670.174230, -1.634940, -9.313295, -4.596718, , , , , , 
1643109670.194087, -2.359186, -9.608679, -5.087679, , , , , , 
1643109670.214067, -2.058265, -9.532813, -3.354127, , , , , , 
1643109670.233958, -0.859219, -9.058013, -2.119018, , , , , , 
1643109670.254123, -0.626982, -9.142858, -2.134431, , , , , , 
1643109670.274165, -0.017059, -8.997260, -0.299724, , , , , , 
1643109670.294111, 0.480037, -8.887576, -0.091429, , , , , , 
1643109670.314150, -0.065242, -8.957307, 0.494552, , , , , , 
1643109670.334150, 0.450559, -9.718513, 3.151966, , , , , , 
1643109670.354119, -0.241515, -10.047716, 4.359542, , , , , , 
1643109670.374162, -0.058359, -10.279804, 2.994697, , , , , , 
1643109670.394114, 0.294936, -9.740361, 1.613842, , , , , , 
1643109670.414025, 0.523881, -9.520393, 0.878522, , , , , , 
1643109670.434136, 0.129736, -9.451710, 0.266205, , , , , , 
1643109670.454141, -0.100108, -9.744999, 0.676362, , , , , , 
1643109670.474026, -0.551564, -9.656115, 1.004667, , , , , , 
1643109670.493570, -0.183306, -9.419388, 0.452354, , , , , , 
1643109670.514157, -1.558027, -8.585906, -2.395848, , , , , , 
1643109670.534135, -0.450559, -8.910321, 3.946841, , , , , , 
1643109670.554125, 0.176572, -10.337265, 7.088782, , , , , , 
1643109670.574160, -1.232715, -9.926959, 1.597531, , , , , , 
1643109670.594143, -0.919373, -9.852140, 1.544410, , , , , , 
1643109670.614084, -1.047613, -9.803358, 1.590348, , , , , , 
1643109670.634215, -0.687884, -9.711630, 1.629554, , , , , , 
1643109670.654125, -0.681749, -9.393949, 1.291971, , , , , , 
1643109670.674171, -0.728735, -10.064027, 1.837550, , , , , , 
1643109670.693344, -0.887501, -10.254964, 3.175011, , , , , , 
1643109670.714152, -0.806547, -10.174908, 2.142661, , , , , , 
1643109670.734154, -0.279373, -9.462184, 2.778022, , , , , , 
1643109670.754119, -0.327706, -9.092579, 2.022203, , , , , , 
1643109670.774162, -1.102979, -9.796774, 1.856853, , , , , , 
1643109670.794116, -1.222240, -9.711780, 2.399738, , , , , , 
1643109670.814143, -1.021726, -9.359383, 1.895160, , , , , , 
1643109670.834135, -0.673369, -9.123405, 1.824082, , , , , , 
1643109670.854136, -1.271770, -9.339781, 1.791611, , , , , , 
1643109670.873172, -1.022025, -9.529970, 1.938705, , , , , , 
1643109670.894146, -0.792331, -9.312696, 2.215983, , , , , , 
1643109670.914117, -0.698059, -9.250746, 2.175132, , , , , , 
1643109670.934145, -0.654365, -9.384073, 2.066645, , , , , , 
1643109670.954119, -1.199944, -9.464279, 1.870620, , , , , , 
1643109670.974120, -1.300052, -9.515306, 2.004396, , , , , , 
1643109670.994211, -1.038186, -9.539547, 2.051232, , , , , , 
1643109671.014155, -0.869245, -9.389610, 1.807772, , , , , , 
1643109671.034219, -1.004817, -9.514108, 1.656788, , , , , , 
1643109671.053783, -1.024120, -9.534310, 1.809418, , , , , , 
1643109671.074100, -1.111358, -9.377340, 1.845929, , , , , , 
1643109671.094225, -1.460912, -9.507375, 1.974917, , , , , , 
1643109671.114197, -1.236306, -9.851990, 1.953818, , , , , , 
1643109671.134273, -1.056890, -10.201993, 1.941698, , , , , , 
1643109671.154115, -0.791284, -10.224737, 1.951574, , , , , , 
1643109671.174193, -0.885256, -10.118944, 2.139818, , , , , , 
1643109671.193502, -1.253065, -10.279804, 2.136376, , , , , , 
1643109671.214290, -1.769165, -10.252869, 1.898901, , , , , , 
1643109671.234206, -0.837073, -10.199299, 2.380435, , , , , , 
1643109671.254168, -1.361253, -10.177751, 2.008286, , , , , , 
1643109671.273284, -1.211915, -10.918158, 1.782483, , , , , , 
1643109671.294187, -0.856825, -11.734731, 1.854160, , , , , , 
1643109671.314165, -0.452504, -11.556811, 1.239299, , , , , , 
1643109671.334215, -0.258574, -10.985495, 1.090409, , , , , , 
1643109671.354078, -0.237625, -10.191219, 0.457592, , , , , , 
1643109671.373635, -0.129437, -9.932645, -0.034117, , , , , , 
1643109671.394188, 0.271742, -9.849446, -0.051475, , , , , , 
1643109671.413592, 0.893336, -9.670779, -0.451906, , , , , , 
1643109671.434200, 1.475876, -9.606136, -0.829142, , , , , , 
1643109671.454165, 1.387440, -9.853187, -0.657208, , , , , , 
1643109671.474166, 1.016937, -10.152313, -0.452354, , , , , , 
1643109671.493379, 0.919972, -10.783335, -0.230143, , , , , , 
1643109671.513753, 0.521786, -10.709563, 0.163105, , , , , , 
1643109671.534199, 0.254534, -10.338612, 0.101903, , , , , , 
1643109671.554149, 0.280720, -9.845556, 0.208296, , , , , , 
1643109671.573636, 0.380379, -9.292794, 0.095319, , , , , , 
1643109671.594169, 0.734272, -9.179818, 0.412102, , , , , , 
1643109671.614165, 0.400131, -9.054422, 0.544681, , , , , , 
1643109671.634233, 0.356886, -8.867524, 0.606481, , , , , , 
1643109671.654157, 0.594809, -8.855853, 0.675464, , , , , , 
1643109671.674206, 0.779013, -8.832659, 0.798017, , , , , , 
1643109671.694121, 0.859967, -8.990527, 0.956484, , , , , , 
1643109671.713603, 0.582539, -9.100211, 1.175703, , , , , , 
1643109671.734198, 0.428712, -8.951770, 1.282394, , , , , , 
1643109671.754168, 0.520440, -8.806921, 1.373823, , , , , , 
1643109671.774167, 0.642843, -8.755595, 1.358410, , , , , , 
1643109671.793529, 0.458190, -8.784775, 1.257554, , , , , , 
1643109671.814191, 0.503680, -8.829367, 1.426196, , , , , , 
1643109671.834167, 0.476446, -9.058761, 1.426046, , , , , , 
1643109671.854171, 0.449212, -9.340828, 1.389984, , , , , , 
1643109671.873472, 0.273986, -9.637410, 1.657536, , , , , , 
1643109671.894166, 0.342670, -9.797372, 1.676540, , , , , , 
1643109671.914165, 0.457741, -10.232668, 1.657985, , , , , , 
1643109671.934200, 0.109535, -10.624270, 1.864784, , , , , , 
1643109671.954185, 0.246752, -10.783484, 2.117073, , , , , , 
1643109671.974181, 0.406266, -10.872818, 2.020257, , , , , , 
1643109671.994167, 0.286556, -10.609755, 2.040758, , , , , , 
1643109672.013721, -0.124947, -10.245238, 2.144008, , , , , , 
1643109672.034180, -0.253336, -10.285640, 2.038663, , , , , , 
1643109672.053749, -0.515053, -11.535413, 2.481590, , , , , , 
1643109672.074115, -0.443825, -11.986571, 1.871069, , , , , , 
1643109672.093503, -0.036063, -11.632977, 1.249923, , , , , , 
1643109672.114134, -0.315286, -10.428843, 1.073351, , , , , , 
1643109672.134214, -0.981623, -9.741558, 0.767192, , , , , , 
1643109672.154171, -1.313070, -9.463531, 0.626383, , , , , , 
1643109672.174170, -1.621024, -9.633819, 0.138415, , , , , , 
1643109672.194240, -1.486799, -10.046669, 0.422427, , , , , , 
1643109672.214192, -1.603217, -10.393229, 0.416292, , , , , , 
1643109672.234201, -1.142782, -10.703578, 0.245256, , , , , , 
1643109672.254189, -0.654066, -10.918008, 0.527921, , , , , , 
1643109672.274156, -0.576105, -10.331579, 0.707187, , , , , , 
1643109672.294170, -0.771232, -9.703101, 0.955436, , , , , , 
1643109672.313790, -0.849343, -9.169044, 1.097442, , , , , , 
1643109672.334247, -0.757017, -8.557924, 0.973393, , , , , , 
1643109672.354170, -0.595857, -8.116493, 0.898424, , , , , , 
1643109672.374187, -0.372298, -7.936629, 0.964115, , , , , , 
1643109672.393513, -0.472705, -8.022222, 0.963666, , , , , , 
1643109672.414205, -0.475848, -8.225579, 1.290924, , , , , , 
1643109672.434201, -0.615459, -8.526949, 1.509544, , , , , , 
1643109672.454168, -0.599897, -8.824728, 1.612495, , , , , , 
1643109672.473502, -0.580893, -8.767417, 1.537526, , , , , , 
1643109672.494168, -0.761506, -8.692748, 1.718738, , , , , , 
1643109672.514190, -0.959327, -8.875605, 1.735347, , , , , , 
1643109672.534201, -0.934337, -9.000253, 1.777395, , , , , , 
1643109672.554207, -0.807594, -9.137471, 1.690905, , , , , , 
1643109672.574117, -0.809091, -9.347113, 1.774852, , , , , , 
1643109672.594172, -0.558597, -9.793781, 1.808071, , , , , , 
1643109672.613712, -0.489165, -10.103232, 2.033725, , , , , , 
1643109672.634202, -0.377685, -10.577733, 2.237082, , , , , , 
1643109672.654168, -0.370652, -10.817602, 2.306364, , , , , , 
1643109672.674187, -0.408361, -10.740089, 2.491915, , , , , , 
1643109672.693522, -0.455497, -10.456676, 2.682254, , , , , , 
1643109672.713301, -0.608875, -10.223840, 2.907908, , , , , , 
1643109672.734221, -0.677409, -10.904541, 2.154482, , , , , , 
1643109672.754179, 0.066738, -12.776807, 3.028366, , , , , , 
1643109672.773412, 0.369904, -12.417377, 1.725022, , , , , , 
1643109672.794172, 0.384419, -11.087249, 0.957381, , , , , , 
1643109672.814171, 0.509067, -9.952846, 0.117316, , , , , , 
1643109672.834159, 0.741754, -9.488072, 0.472855, , , , , , 
1643109672.853444, 0.927604, -9.845406, 1.001674, , , , , , 
1643109672.874125, 1.314117, -10.072406, 0.374244, , , , , , 
1643109672.894179, 1.742680, -10.073155, 0.000898, , , , , , 
1643109672.914164, 1.795352, -10.345196, -0.008230, , , , , , 
1643109672.934225, 1.426495, -10.716447, 0.401927, , , , , , 
1643109672.954183, 0.889147, -10.733505, 0.744447, , , , , , 
1643109672.974110, 0.698808, -10.481815, 0.947356, , , , , , 
1643109672.994129, 0.661398, -9.786898, 1.103877, , , , , , 
1643109673.014112, 0.427215, -9.089886, 0.949451, , , , , , 
1643109673.034143, 0.393697, -8.798392, 1.099537, , , , , , 
1643109673.054116, 0.403423, -8.257302, 1.129614, , , , , , 
1643109673.074131, 0.480786, -7.818116, 1.076493, , , , , , 
1643109673.094122, 0.556802, -7.730728, 1.080234, , , , , , 
1643109673.114176, 0.656311, -7.837868, 1.165976, , , , , , 
1643109673.134234, 0.625934, -8.016236, 1.156399, , , , , , 
1643109673.154175, 0.687734, -8.263288, 1.321749, , , , , , 
1643109673.174166, 0.665289, -8.366987, 1.327585, , , , , , 
1643109673.194208, 0.565032, -8.572589, 1.385794, , , , , , 
1643109673.214173, 0.698808, -8.845228, 1.490690, , , , , , 
1643109673.234230, 0.806098, -9.202713, 1.511938, , , , , , 
1643109673.254176, 0.581192, -9.542540, 1.643021, , , , , , 
1643109673.274240, 0.464774, -9.923816, 1.888277, , , , , , 
1643109673.294185, 0.469712, -10.166678, 2.144456, , , , , , 
1643109673.314207, 0.335787, -10.315418, 1.923292, , , , , , 
1643109673.334232, 0.037409, -10.444705, 2.137872, , , , , , 
1643109673.354189, -0.156222, -10.633996, 1.883489, , , , , , 
1643109673.374127, 0.336385, -10.741586, 2.352453, , , , , , 
1643109673.393951, 0.440832, -10.640730, 2.476203, , , , , , 
1643109673.414181, 0.465373, -10.345046, 2.395099, , , , , , 
1643109673.434213, 0.509815, -10.150816, 2.354697, , , , , , 
1643109673.453678, -0.130634, -10.519673, 2.398541, , , , , , 
1643109673.474135, -0.805798, -11.464784, 2.965219, , , , , , 
1643109673.494184, -0.841712, -10.343250, 1.389086, , , , , , 
1643109673.514183, -0.472855, -10.196606, 1.462109, , , , , , 
1643109673.534214, -0.695815, -9.587581, 1.126622, , , , , , 
1643109673.554179, -1.321899, -9.650728, 1.581370, , , , , , 
1643109673.574265, -1.870320, -10.360309, 1.397466, , , , , , 
1643109673.593233, -1.749862, -11.091289, 1.613692, , , , , , 
1643109673.614196, -1.308581, -11.502194, 1.317409, , , , , , 
1643109673.634249, -0.452504, -11.486482, 1.231966, , , , , , 
1643109673.654150, -0.141108, -10.834211, 1.325191, , , , , , 
1643109673.673620, -0.408960, -9.894038, 1.457470, , , , , , 
1643109673.693155, -0.585831, -9.011925, 1.630900, , , , , , 
1643109673.714198, -0.623839, -8.226028, 1.659182, , , , , , 
1643109673.734212, -0.465074, -7.586776, 1.607557, , , , , , 
1643109673.754172, -0.375441, -7.380576, 1.571644, , , , , , 
1643109673.774150, -0.316783, -7.473650, 1.642273, , , , , , 
1643109673.794152, -0.393098, -7.989002, 1.620725, , , , , , 
1643109673.814212, -0.543035, -8.233360, 1.764377, , , , , , 
1643109673.834218, -0.374393, -8.567950, 1.808221, , , , , , 
1643109673.854239, -0.471358, -8.572289, 2.007538, , , , , , 
1643109673.874192, -0.603189, -8.606407, 2.071583, , , , , , 
1643109673.894132, -0.735918, -8.871864, 2.042853, , , , , , 
1643109673.914181, -0.900519, -9.158420, 2.147000, , , , , , 
1643109673.934217, -0.977433, -9.411906, 1.810166, , , , , , 
1643109673.954181, -0.935235, -9.689933, 2.412457, , , , , , 
1643109673.974124, -0.786346, -9.829993, 2.540847, , , , , , 
1643109673.994187, -0.612467, -10.148871, 2.696919, , , , , , 
1643109674.014238, -0.379032, -10.521469, 2.600402, , , , , , 
1643109674.034137, -0.199766, -10.549750, 2.616563, , , , , , 
1643109674.054158, -0.326060, -10.296115, 2.888455, , , , , , 
1643109674.074180, -0.557250, -9.843162, 3.076100, , , , , , 
1643109674.094143, -0.484527, -9.342025, 3.077896, , , , , , 
1643109674.114159, -0.388310, -9.092130, 2.764854, , , , , , 
1643109674.134218, -0.241515, -11.290157, 2.108992, , , , , , 
1643109674.154194, 0.579247, -12.946645, 2.616114, , , , , , 
1643109674.174166, 1.160739, -11.676671, 1.066617, , , , , , 
1643109674.194182, 1.113603, -11.043106, 0.535104, , , , , , 
1643109674.213674, 1.245284, -10.712556, 0.614262, , , , , , 
1643109674.234217, 1.460014, -10.905439, 0.524031, , , , , , 
1643109674.254181, 1.779191, -11.643152, 0.362123, , , , , , 
1643109674.274216, 2.071134, -11.673828, 0.531513, , , , , , 
1643109674.294150, 1.537077, -11.382035, 0.842011, , , , , , 
1643109674.314182, 0.667683, -10.625617, 0.928801, , , , , , 
1643109674.334245, 0.119860, -10.197653, 0.976834, , , , , , 
1643109674.354196, -0.057461, -9.375843, 1.007211, , , , , , 
1643109674.374169, -0.038008, -8.564508, 0.890194, , , , , , 
1643109674.394187, -0.110283, -7.729979, 0.715567, , , , , , 
1643109674.414183, 0.183156, -7.209091, 0.824802, , , , , , 
1643109674.434219, 0.569970, -7.146842, 0.859967, , , , , , 
1643109674.454183, 0.660650, -7.696311, 0.936731, , , , , , 
1643109674.474190, 0.474800, -8.278551, 0.966210, , , , , , 
1643109674.494150, 0.574159, -8.841338, 1.127669, , , , , , 
1643109674.514181, 0.868497, -9.083900, 1.020977, , , , , , 
1643109674.534202, 0.900220, -9.004592, 1.462708, , , , , , 
1643109674.554135, 0.754174, -8.922890, 1.376516, , , , , , 
1643109674.574220, 0.613215, -9.016115, 1.454178, , , , , , 
1643109674.594184, 0.633266, -9.157522, 1.502212, , , , , , 
1643109674.613176, 0.550367, -9.521441, 1.695244, , , , , , 
1643109674.634225, 0.409259, -9.778219, 1.825429, , , , , , 
1643109674.654195, 0.280271, -10.053702, 1.632846, , , , , , 
1643109674.674268, 0.166098, -10.374974, 1.693598, , , , , , 
1643109674.693555, 0.210839, -10.476727, 1.965640, , , , , , 
1643109674.714199, 0.213234, -10.610204, 2.357391, , , , , , 
1643109674.734231, 0.362273, -10.483012, 2.542642, , , , , , 
1643109674.754135, 0.455796, -10.060884, 2.567033, , , , , , 
1643109674.774151, 0.284311, -9.543737, 2.311003, , , , , , 
1643109674.794187, -0.317681, -10.526706, 1.964742, , , , , , 
1643109674.814185, -0.694767, -12.203545, 2.489222, , , , , , 
1643109674.834223, -0.929549, -11.144261, 1.127220, , , , , , 
1643109674.854169, -0.740557, -10.531794, 1.407940, , , , , , 
1643109674.874211, -1.270872, -10.544962, 0.982969, , , , , , 
1643109674.894214, -1.719785, -10.649259, 1.231368, , , , , , 
1643109674.914188, -1.571195, -10.779743, 1.153407, , , , , , 
1643109674.934229, -1.189769, -10.890924, 1.126472, , , , , , 
1643109674.954191, -0.894085, -11.213842, 1.179444, , , , , , 
1643109674.973670, -0.708235, -11.111490, 1.085920, , , , , , 
1643109674.994189, -0.527772, -10.464008, 0.945111, , , , , , 
1643109675.014209, -0.513706, -9.563489, 1.116147, , , , , , 
1643109675.034219, -0.511312, -8.664167, 1.258003, , , , , , 
1643109675.054188, -0.567276, -7.967454, 1.538424, , , , , , 
1643109675.074187, -0.655562, -7.359028, 1.263540, , , , , , 
1643109675.094194, -0.562488, -7.200262, 1.118242, , , , , , 
1643109675.113861, -0.506673, -7.580042, 1.449240, , , , , , 
1643109675.133425, -0.540042, -8.043320, 1.576731, , , , , , 
1643109675.154216, -0.599598, -8.524555, 1.710807, , , , , , 
1643109675.174190, -0.687734, -8.954913, 1.627608, , , , , , 
1643109675.193528, -0.625186, -9.222914, 1.689109, , , , , , 
1643109675.214234, -0.666486, -9.210045, 1.884985, , , , , , 
1643109675.234222, -0.840963, -9.183110, 1.912219, , , , , , 
1643109675.254093, -0.945410, -9.249400, 1.881094, , , , , , 
1643109675.273634, -1.050905, -9.174730, 1.872415, , , , , , 
1643109675.294192, -0.929998, -9.205406, 1.923741, , , , , , 
1643109675.314189, -0.759112, -9.400982, 2.117971, , , , , , 
1643109675.334261, -0.610970, -9.913791, 2.080112, , , , , , 
1643109675.354236, -0.398186, -10.124630, 2.165256, , , , , , 
1643109675.374216, -0.307655, -10.273968, 2.338237, , , , , , 
1643109675.393589, -0.442927, -10.038738, 2.681506, , , , , , 
1643109675.414148, -0.649876, -9.683798, 2.799271, , , , , , 
1643109675.433776, -0.758064, -10.359262, 2.298134, , , , , , 
1643109675.454215, -0.370802, -13.958345, 3.102736, , , , , , 
1643109675.474186, 0.766444, -13.851654, 1.946935, , , , , , 
1643109675.494201, 0.743699, -11.433211, 1.037737, , , , , , 
1643109675.514133, 0.609773, -10.372430, -0.124648, , , , , , 
1643109675.534239, 0.230292, -10.126575, 0.720954, , , , , , 
1643109675.554149, 0.830638, -10.408642, 0.424372, , , , , , 
1643109675.574228, 1.456572, -10.524312, 0.205004, , , , , , 
1643109675.594144, 1.721880, -10.335170, 0.162506, , , , , , 
1643109675.614214, 1.429039, -10.499472, 0.618901, , , , , , 
1643109675.634246, 1.063923, -10.481965, 0.851288, , , , , , 
1643109675.654214, 0.236427, -10.530746, 0.804901, , , , , , 
1643109675.674228, 0.043096, -10.165930, 0.707786, , , , , , 
1643109675.694282, 0.107889, -9.745448, 0.692373, , , , , , 
1643109675.714250, 0.351199, -9.376741, 0.851288, , , , , , 
1643109675.734263, 0.345064, -8.682872, 1.012897, , , , , , 
1643109675.754231, 0.495001, -8.091953, 0.829890, , , , , , 
1643109675.774252, 0.471508, -8.038532, 0.887201, , , , , , 
1643109675.794220, 0.499341, -8.347833, 1.091906, , , , , , 
1643109675.813844, 0.476446, -8.377012, 1.040430, , , , , , 
1643109675.834276, 0.526874, -8.436269, 1.193659, , , , , , 
1643109675.854190, 0.590769, -8.445097, 1.384746, , , , , , 
1643109675.874153, 0.619200, -8.278850, 1.411681, , , , , , 
1643109675.894224, 0.514005, -8.138191, 1.454627, , , , , , 
1643109675.914223, 0.325312, -8.278700, 1.350330, , , , , , 
1643109675.934274, 0.462530, -8.584111, 1.644667, , , , , , 
1643109675.954225, 0.436493, -9.021202, 1.946935, , , , , , 
1643109675.974218, 0.366163, -9.514707, 1.991527, , , , , , 
1643109675.994220, 0.177769, -10.041581, 2.110040, , , , , , 
1643109676.014217, 0.131681, -10.549451, 2.212841, , , , , , 
1643109676.034280, 0.227748, -10.657639, 2.324919, , , , , , 
1643109676.054234, 0.412102, -10.728717, 2.367865, , , , , , 
1643109676.074254, 0.564134, -10.539276, 2.475904, , , , , , 
1643109676.094255, 0.556951, -10.081534, 2.673276, , , , , , 
1643109676.114226, 0.346411, -9.835530, 2.587833, , , , , , 
1643109676.134320, -0.183605, -10.648810, 2.227655, , , , , , 
1643109676.154223, -0.551564, -12.289287, 2.678663, , , , , , 
1643109676.174250, -0.509666, -11.552622, 1.971475, , , , , , 
1643109676.194251, -0.566229, -11.399842, 1.442806, , , , , , 
1643109676.214162, -1.094150, -10.734403, 0.954838, , , , , , 
1643109676.234249, -1.793257, -9.959879, 0.920720, , , , , , 
1643109676.254254, -1.866280, -9.813384, 0.704643, , , , , , 
1643109676.274249, -1.418116, -10.218902, 0.857423, , , , , , 
1643109676.294250, -0.896030, -10.452486, 1.014094, , , , , , 
1643109676.314250, -0.791433, -10.590152, 0.932841, , , , , , 
1643109676.334262, -0.557550, -10.402507, 0.641796, , , , , , 
1643109676.354226, -0.562637, -9.859771, 0.715268, , , , , , 
1643109676.374250, -0.646285, -9.281123, 0.891990, , , , , , 
1643109676.394220, -0.585382, -8.904635, 1.076942, , , , , , 
1643109676.414249, -0.667533, -8.648605, 1.256357, , , , , , 
1643109676.434250, -0.702549, -8.419360, 1.307533, , , , , , 
1643109676.454255, -0.824354, -8.399009, 1.302446, , , , , , 
1643109676.474139, -0.793827, -8.617031, 1.346439, , , , , , 
1643109676.494223, -0.902913, -8.766818, 1.258901, , , , , , 
1643109676.514240, -0.941819, -8.720431, 1.349881, , , , , , 
1643109676.534263, -0.870741, -8.667758, 1.464653, , , , , , 
1643109676.554224, -0.819416, -8.575282, 1.451784, , , , , , 
1643109676.574250, -0.852186, -8.386888, 1.434725, , , , , , 
1643109676.594231, -0.931644, -8.373870, 1.490091, , , , , , 
1643109676.614243, -0.874183, -8.578425, 1.485901, , , , , , 
1643109676.634273, -0.883909, -8.908675, 1.539322, , , , , , 
1643109676.654162, -0.951845, -9.315839, 1.675193, , , , , , 
1643109676.674243, -0.926556, -9.728988, 1.750610, , , , , , 
1643109676.694251, -0.770185, -10.386196, 1.882291, , , , , , 
1643109676.714250, -0.486771, -10.894066, 2.042254, , , , , , 
1643109676.734270, -0.386215, -10.991481, 2.207155, , , , , , 
1643109676.754218, -0.739210, -10.848726, 2.619257, , , , , , 
1643109676.774258, -0.874931, -10.591050, 2.802563, , , , , , 
1643109676.794260, -0.710479, -10.280253, 2.943821, , , , , , 
1643109676.814237, -0.613065, -10.262745, 2.719065, , , , , , 
1643109676.834273, -0.537947, -11.762264, 2.377891, , , , , , 
1643109676.854228, 0.764798, -13.104962, 2.868104, , , , , , 
1643109676.874247, 1.008707, -11.226262, 0.821510, , , , , , 
1643109676.894232, 0.972944, -10.684873, 1.253365, , , , , , 
1643109676.914258, 0.796222, -9.901071, 0.296582, , , , , , 
1643109676.934284, 0.845153, -9.667487, 0.723647, , , , , , 
1643109676.954247, 1.247978, -9.399336, -0.106243, , , , , , 
1643109676.974226, 1.828572, -9.605836, 0.125097, , , , , , 
1643109676.994223, 2.086996, -9.868450, 0.038457, , , , , , 
1643109677.014225, 1.394024, -10.365846, 0.358981, , , , , , 
1643109677.034267, 0.785298, -10.463559, 0.359130, , , , , , 
1643109677.054229, 0.504129, -10.405649, 0.409558, , , , , , 
1643109677.074231, 0.540341, -9.944167, 0.514155, , , , , , 
1643109677.094224, 0.451756, -9.424326, 0.696264, , , , , , 
1643109677.114269, 0.368109, -9.015217, 0.771382, , , , , , 
1643109677.134253, 0.444274, -8.505102, 0.954688, , , , , , 
1643109677.154258, 0.476296, -8.307730, 1.063175, , , , , , 
1643109677.174226, 0.442179, -8.314165, 0.872387, , , , , , 
1643109677.194255, 0.515202, -8.448539, 0.934038, , , , , , 
1643109677.214229, 0.675165, -8.630947, 1.119140, , , , , , 
1643109677.234260, 0.680402, -8.828170, 1.115997, , , , , , 
1643109677.254159, 0.670676, -9.054122, 1.321150, , , , , , 
1643109677.274182, 0.697611, -8.995315, 1.448492, , , , , , 
1643109677.294137, 0.787692, -8.997559, 1.452532, , , , , , 
1643109677.314204, 0.751929, -9.090335, 1.359458, , , , , , 
1643109677.334258, 0.618602, -9.111733, 1.484704, , , , , , 
1643109677.354228, 0.521786, -9.291597, 1.661726, , , , , , 
1643109677.374178, 0.372149, -9.493010, 1.790713, , , , , , 
1643109677.394203, 0.297779, -9.994146, 1.982998, , , , , , 
1643109677.414231, 0.276979, -10.303447, 2.203713, , , , , , 
1643109677.434195, 0.302567, -10.561572, 2.367117, , , , , , 
1643109677.454237, 0.470161, -10.631752, 2.592023, , , , , , 
1643109677.474212, 0.493206, -10.308684, 2.628833, , , , , , 
1643109677.493401, 0.450858, -10.088118, 2.660557, , , , , , 
1643109677.514153, -0.408062, -11.360786, 2.481141, , , , , , 
1643109677.534211, -0.538396, -12.292879, 2.998289, , , , , , 
1643109677.554273, -0.352546, -11.995100, 1.929876, , , , , , 
1643109677.574157, -0.338630, -11.158177, 1.752556, , , , , , 
1643109677.594222, -0.587627, -10.554838, 1.490540, , , , , , 
1643109677.614272, -1.000926, -9.353996, 0.953192, , , , , , 
1643109677.634332, -1.446846, -9.237877, 0.518195, , , , , , 
1643109677.654230, -1.526902, -10.154109, 0.965462, , , , , , 
1643109677.674265, -1.403601, -10.622025, 1.114351, , , , , , 
1643109677.694247, -1.213561, -11.130644, 1.009156, , , , , , 
1643109677.714262, -0.802207, -10.902297, 0.709133, , , , , , 
1643109677.733795, -0.647033, -10.525060, 0.783951, , , , , , 
1643109677.753525, -0.534655, -9.721506, 1.090708, , , , , , 
1643109677.774164, -0.475848, -8.876054, 1.169867, , , , , , 
1643109677.794232, -0.432752, -8.313416, 1.096993, , , , , , 
1643109677.814248, -0.284311, -7.743596, 1.030405, , , , , , 
1643109677.833337, -0.239719, -7.695114, 1.146972, , , , , , 
1643109677.854159, -0.468815, -8.065018, 1.097293, , , , , , 
1643109677.873332, -0.650624, -8.484452, 1.299902, , , , , , 
1643109677.894204, -0.810886, -8.824878, 1.269974, , , , , , 
1643109677.914265, -0.805948, -9.039159, 1.410484, , , , , , 
1643109677.934280, -0.704344, -9.093328, 1.328034, , , , , , 
1643109677.954010, -0.744746, -8.898948, 1.502362, , , , , , 
1643109677.974270, -0.841412, -8.831462, 1.654094, , , , , , 
1643109677.994230, -0.963217, -9.022998, 1.607856, , , , , , 
1643109678.014297, -0.911892, -9.230845, 1.659331, , , , , , 
1643109678.034160, -0.774674, -9.273192, 1.634641, , , , , , 
1643109678.054276, -0.689829, -9.525032, 1.731008, , , , , , 
1643109678.074233, -0.455048, -9.953145, 1.990330, , , , , , 
1643109678.094199, -0.481683, -10.255712, 2.109741, , , , , , 
1643109678.114223, -0.374842, -10.534637, 2.167950, , , , , , 
1643109678.134314, -0.350900, -10.553791, 2.389862, , , , , , 
1643109678.154230, -0.478840, -10.281300, 2.751237, , , , , , 
1643109678.174233, -0.721253, -10.028263, 2.942773, , , , , , 
1643109678.194230, -0.722301, -10.082133, 2.720561, , , , , , 
1643109678.214262, -0.497695, -11.461043, 2.059462, , , , , , 
1643109678.234262, 0.357335, -12.570307, 2.683002, , , , , , 
1643109678.254233, 1.099537, -10.868030, 1.355866, , , , , , 
1643109678.274196, 0.852785, -10.607660, 1.400608, , , , , , 
1643109678.294294, 0.450559, -9.805004, 0.796072, , , , , , 
1643109678.314216, 0.521038, -10.113257, 1.164929, , , , , , 
1643109678.334288, 1.075445, -9.911995, 0.355689, , , , , , 
1643109678.354239, 1.507599, -10.197204, 0.309002, , , , , , 
1643109678.374235, 1.672649, -10.204836, 0.135272, , , , , , 
1643109678.393914, 1.321300, -10.762834, 0.464924, , , , , , 
1643109678.414256, 0.780510, -10.800393, 0.659752, , , , , , 
1643109678.434287, 0.419135, -10.647015, 0.661548, , , , , , 
1643109678.454242, 0.303615, -10.380959, 0.770933, , , , , , 
1643109678.474267, 0.200065, -9.562741, 0.940173, , , , , , 
1643109678.494237, 0.169390, -9.009082, 0.841562, , , , , , 
1643109678.514266, 0.303615, -8.496423, 1.051803, , , , , , 
1643109678.534267, 0.376039, -8.093299, 1.061828, , , , , , 
1643109678.554203, 0.374842, -8.001572, 1.051503, , , , , , 
1643109678.574215, 0.428861, -8.302044, 0.915782, , , , , , 
1643109678.594179, 0.587477, -8.699481, 0.977433, , , , , , 
1643109678.614274, 0.790984, -8.831761, 1.234510, , , , , , 
1643109678.634282, 0.755969, -8.768614, 1.426495, , , , , , 
1643109678.654241, 0.531962, -8.623316, 1.436371, , , , , , 
1643109678.674287, 0.370503, -8.427440, 1.330129, , , , , , 
1643109678.694267, 0.273687, -8.661623, 1.267879, , , , , , 
1643109678.713873, 0.547973, -9.043349, 1.490540, , , , , , 
1643109678.734293, 0.620547, -9.431060, 1.647660, , , , , , 
1643109678.754255, 0.407762, -9.661950, 1.693598, , , , , , 
1643109678.774237, 0.183605, -10.166229, 1.796549, , , , , , 
1643109678.794236, 0.186598, -10.575488, 2.096124, , , , , , 
1643109678.814269, 0.347159, -10.760739, 2.325817, , , , , , 
1643109678.834288, 0.478541, -10.783035, 2.471265, , , , , , 
1643109678.854246, 0.559794, -10.377368, 2.558204, , , , , , 
1643109678.874269, 0.455198, -9.918878, 2.580949, , , , , , 
1643109678.894138, -0.052523, -10.416723, 2.527828, , , , , , 
1643109678.914202, -0.663493, -12.376975, 2.909554, , , , , , 
1643109678.934177, -0.365265, -11.103858, 2.239476, , , , , , 
1643109678.954234, -0.495151, -11.389965, 1.665616, , , , , , 
1643109678.974250, -0.790087, -10.499921, 1.174954, , , , , , 
1643109678.993989, -1.147720, -9.629629, 0.382174, , , , , , 
1643109679.014259, -1.813009, -9.691279, -0.127641, , , , , , 
1643109679.034288, -1.664569, -10.218602, 0.881066, , , , , , 
1643109679.054247, -1.603517, -10.694899, 1.076343, , , , , , 
1643109679.074274, -1.356315, -11.143063, 0.920870, , , , , , 
1643109679.094179, -1.013346, -11.096377, 0.725892, , , , , , 
1643109679.114154, -0.704643, -10.595988, 1.177798, , , , , , 
1643109679.134272, -0.638354, -9.598654, 1.407042, , , , , , 
1643109679.154249, -0.652270, -8.684518, 1.599626, , , , , , 
1643109679.174200, -0.654665, -7.927800, 1.517475, , , , , , 
1643109679.194061, -0.482432, -7.426065, 1.376816, , , , , , 
1643109679.214241, -0.418836, -7.348553, 1.241842, , , , , , 
1643109679.234271, -0.462829, -7.781155, 1.386991, , , , , , 
1643109679.254245, -0.615160, -8.371326, 1.362899, , , , , , 
1643109679.274238, -0.586280, -8.692149, 1.518373, , , , , , 
1643109679.294229, -0.689680, -8.967632, 1.651251, , , , , , 
1643109679.314240, -0.768539, -9.074772, 1.712303, , , , , , 
1643109679.334319, -0.846350, -9.027038, 1.879448, , , , , , 
1643109679.354152, -0.957531, -9.114726, 2.036418, , , , , , 
1643109679.374220, -1.157148, -9.244611, 1.995717, , , , , , 
1643109679.394181, -0.968903, -9.264064, 2.033425, , , , , , 
1643109679.414200, -0.862062, -9.289502, 2.088642, , , , , , 
1643109679.434184, -0.693421, -9.507674, 2.305766, , , , , , 
1643109679.454170, -0.626682, -9.722853, 2.338686, , , , , , 
1643109679.474164, -0.469862, -10.230873, 2.419640, , , , , , 
1643109679.494189, -0.419733, -10.366295, 2.438494, , , , , , 
1643109679.514244, -0.345663, -10.221146, 2.617012, , , , , , 
1643109679.534245, -0.500388, -9.965116, 2.871695, , , , , , 
1643109679.554226, -0.800711, -9.493159, 3.021931, , , , , , 
1643109679.574216, -0.892139, -9.300725, 2.786701, , , , , , 
1643109679.594206, -0.785747, -11.008390, 1.834407, , , , , , 
1643109679.614247, 0.482132, -13.148058, 2.871396, , , , , , 
1643109679.634321, 1.374122, -11.221474, 1.616685, , , , , , 
1643109679.654249, 0.795174, -10.996269, 1.339257, , , , , , 
1643109679.674235, 0.774225, -10.629058, 0.988356, , , , , , 
1643109679.694212, 0.601394, -9.909002, 0.696413, , , , , , 
1643109679.714267, 0.890194, -10.291775, 0.422427, , , , , , 
1643109679.734302, 1.407192, -10.632350, 0.687435, , , , , , 
1643109679.754263, 1.787272, -11.014974, 0.776619, , , , , , 
1643109679.774305, 1.130512, -11.142166, 0.874931, , , , , , 
1643109679.794268, 0.491410, -10.869077, 1.292121, , , , , , 
1643109679.814265, 0.145597, -10.513837, 1.144129, , , , , , 
1643109679.834226, 0.024241, -9.724649, 1.092205, , , , , , 
1643109679.854242, -0.014216, -8.897751, 1.062277, , , , , , 
1643109679.874281, 0.252588, -8.186374, 1.179893, , , , , , 
1643109679.894191, 0.515053, -7.854029, 1.255459, , , , , , 
1643109679.914289, 0.477344, -7.953987, 1.237952, , , , , , 
1643109679.934294, 0.363619, -8.106767, 1.090409, , , , , , 
1643109679.954255, 0.336086, -8.333318, 1.086219, , , , , , 
1643109679.974281, 0.464774, -8.627206, 1.174805, , , , , , 
1643109679.994253, 0.662895, -8.610297, 1.301099, , , , , , 
1643109680.013857, 0.602591, -8.432378, 1.290175, , , , , , 
1643109680.034294, 0.619649, -8.384943, 1.457770, , , , , , 
1643109680.054208, 0.595707, -8.634239, 1.653645, , , , , , 
1643109680.074310, 0.644938, -9.062203, 1.778443, , , , , , 
1643109680.094275, 0.405668, -9.394398, 1.858050, , , , , , 
1643109680.114242, 0.297928, -9.557803, 1.967884, , , , , , 
1643109680.134280, 0.185850, -9.843610, 2.078616, , , , , , 
1643109680.154266, 0.053421, -10.212916, 2.210297, , , , , , 
1643109680.174277, 0.125845, -10.514137, 2.322974, , , , , , 
1643109680.194273, 0.374842, -10.676493, 2.510620, , , , , , 
1643109680.214247, 0.606481, -10.433781, 2.576311, , , , , , 
1643109680.234278, 0.393397, -10.270975, 2.518700, , , , , , 
1643109680.254277, -0.560393, -12.428301, 2.498050, , , , , , 
1643109680.274266, -0.325761, -12.981062, 2.521543, , , , , , 
1643109680.294253, -0.243311, -11.309610, 1.347038, , , , , , 
1643109680.314196, -0.632219, -10.728418, 1.484255, , , , , , 
1643109680.334313, -1.610849, -9.999084, 1.023970, , , , , , 
1643109680.354278, -1.643919, -9.695469, 1.060931, , , , , , 
1643109680.374264, -1.190367, -10.127174, 0.951396, , , , , , 
1643109680.394353, -0.890044, -10.228029, 0.878373, , , , , , 
1643109680.414210, -0.865055, -10.716147, 0.869993, , , , , , 
1643109680.434261, -0.654066, -10.373178, 0.830489, , , , , , 
1643109680.454274, -0.500987, -10.126276, 1.030704, , , , , , 
1643109680.474229, -0.368557, -9.609278, 1.332972, , , , , , 
1643109680.494192, -0.330849, -9.001749, 1.449839, , , , , , 
1643109680.514267, -0.379481, -8.516026, 1.453280, , , , , , 
1643109680.534247, -0.317381, -8.147169, 1.274164, , , , , , 
1643109680.554301, -0.204704, -8.021324, 1.103727, , , , , , 
1643109680.574290, -0.119261, -8.238598, 1.473930, , , , , , 
1643109680.594251, -0.395791, -8.429984, 1.553837, , , , , , 
1643109680.614280, -0.442927, -8.669404, 1.464354, , , , , , 
1643109680.634254, -0.382174, -8.989180, 1.461510, , , , , , 
1643109680.654290, -0.383222, -9.044246, 1.667711, , , , , , 
1643109680.674281, -0.531962, -8.912116, 1.814356, , , , , , 
1643109680.694249, -0.743998, -8.896404, 1.749563, , , , , , 
1643109680.714303, -0.792930, -8.892364, 1.838597, , , , , , 
1643109680.734268, -0.659154, -8.847623, 1.852813, , , , , , 
1643109680.754254, -0.549469, -8.919748, 1.887978, , , , , , 
1643109680.774259, -0.349404, -9.178022, 2.066046, , , , , , 
1643109680.794256, -0.279074, -9.724200, 2.177676, , , , , , 
1643109680.814290, -0.116268, -10.350433, 2.512565, , , , , , 
1643109680.834284, -0.030975, -10.623671, 2.595614, , , , , , 
1643109680.854279, -0.136170, -10.506355, 2.665944, , , , , , 
1643109680.874251, -0.258275, -10.308086, 2.963573, , , , , , 
1643109680.894141, -0.447716, -9.993248, 3.084330, , , , , , 
1643109680.914198, -0.546177, -9.989507, 2.529923, , , , , , 
1643109680.934258, -0.099210, -12.831275, 2.830395, , , , , , 
1643109680.954297, 0.907103, -12.099248, 2.230947, , , , , , 
1643109680.974266, 1.237054, -10.703727, 1.122282, , , , , , 
1643109680.994188, 0.779013, -9.960477, 0.307056, , , , , , 
1643109681.014259, 0.634763, -9.624990, 1.143979, , , , , , 
1643109681.034250, 0.843358, -9.759514, 0.500089, , , , , , 
1643109681.054321, 1.441908, -11.038916, 0.842909, , , , , , 
1643109681.074232, 1.502810, -10.950629, 0.494403, , , , , , 
1643109681.094219, 1.430984, -11.239430, 0.723199, , , , , , 
1643109681.114248, 0.967257, -11.258883, 0.795174, , , , , , 
1643109681.134228, 0.606631, -11.127501, 0.989553, , , , , , 
1643109681.154256, 0.315735, -10.349236, 1.275511, , , , , , 
1643109681.174250, 0.068085, -9.290999, 1.243488, , , , , , 
1643109681.194257, 0.003292, -8.517372, 1.323096, , , , , , 
1643109681.214252, 0.107589, -7.923610, 1.466449, , , , , , 
1643109681.234253, 0.251541, -7.503428, 1.310526, , , , , , 
1643109681.253860, 0.536900, -7.601890, 1.210119, , , , , , 
1643109681.274240, 0.594959, -8.042423, 0.898574, , , , , , 
1643109681.294300, 0.813580, -8.343344, 0.911742, , , , , , 
1643109681.314218, 0.932841, -8.751855, 1.502960, , , , , , 
1643109681.334208, 0.756568, -8.715792, 1.460164, , , , , , 
1643109681.354210, 0.588375, -8.479664, 1.381005, , , , , , 
1643109681.374289, 0.458639, -8.472032, 1.405995, , , , , , 
1643109681.394215, 0.439635, -8.620473, 1.451784, , , , , , 
1643109681.414183, 0.612916, -8.894459, 1.681927, , , , , , 
1643109681.434290, 0.624438, -9.219023, 1.863138, , , , , , 
1643109681.454220, 0.402974, -9.710583, 2.175581, , , , , , 
1643109681.474167, 0.235230, -10.248231, 2.464831, , , , , , 
1643109681.494338, 0.127791, -10.555736, 2.348113, , , , , , 
1643109681.514260, 0.314239, -10.648062, 2.346916, , , , , , 
1643109681.534292, 0.479888, -10.531943, 2.674024, , , , , , 
1643109681.554272, 0.585083, -10.177003, 2.707543, , , , , , 
1643109681.574221, 0.632967, -9.697265, 2.949357, , , , , , 
1643109681.594320, 0.213234, -10.229077, 2.726846, , , , , , 
1643109681.614252, -0.413299, -12.627468, 3.167678, , , , , , 
1643109681.633771, -0.184354, -12.047772, 2.059911, , , , , , 
1643109681.654273, -0.180912, -11.012579, 1.792958, , , , , , 
1643109681.674259, -0.667683, -10.435876, 1.316063, , , , , , 
1643109681.694255, -1.365742, -9.593267, 1.303194, , , , , , 
1643109681.714254, -1.526453, -9.384373, 1.006014, , , , , , 
1643109681.734289, -1.380557, -9.990854, 1.004667, , , , , , 
1643109681.754286, -1.306636, -10.383353, 0.784101, , , , , , 
1643109681.773914, -1.124078, -10.805930, 0.928202, , , , , , 
1643109681.794258, -0.818817, -10.920253, 1.024868, , , , , , 
1643109681.814288, -0.569970, -10.678439, 1.328483, , , , , , 
1643109681.834259, -0.578349, -9.841964, 1.652298, , , , , , 
1643109681.854289, -0.584933, -9.024494, 1.700781, , , , , , 
1643109681.874305, -0.584933, -8.352023, 1.525406, , , , , , 
1643109681.894259, -0.503082, -7.748534, 1.452682, , , , , , 
1643109681.914191, -0.332794, -7.608025, 1.400309, , , , , , 
1643109681.934208, -0.360028, -7.903709, 1.480664, , , , , , 
1643109681.954284, -0.486023, -8.175450, 1.597681, , , , , , 
1643109681.974268, -0.587328, -8.635736, 1.670554, , , , , , 
1643109681.994288, -0.602441, -8.946383, 1.629404, , , , , , 
1643109682.014298, -0.487370, -8.757840, 1.673397, , , , , , 
1643109682.034420, -0.670526, -8.550891, 1.561768, , , , , , 
1643109682.054282, -0.714520, -8.644864, 2.131438, , , , , , 
1643109682.074256, -0.719009, -8.886229, 2.031330, , , , , , 
1643109682.094259, -0.628478, -9.071929, 2.097470, , , , , , 
1643109682.114264, -0.560692, -9.433603, 2.207903, , , , , , 
1643109682.134253, -0.528819, -9.951200, 2.357092, , , , , , 
1643109682.154271, -0.509366, -10.555137, 2.434155, , , , , , 
1643109682.174262, -0.492457, -10.582671, 2.341230, , , , , , 
1643109682.194248, -0.367211, -10.607361, 2.436549, , , , , , 
1643109682.214258, -0.399383, -10.437971, 2.767099, , , , , , 
1643109682.234184, -0.467169, -9.950901, 2.996942, , , , , , 
1643109682.254254, -0.613664, -9.671976, 2.879177, , , , , , 
1643109682.274214, -0.883460, -10.480618, 1.901894, , , , , , 
1643109682.294292, -0.069731, -13.978696, 2.690334, , , , , , 
1643109682.314275, 1.452532, -11.777228, 1.680430, , , , , , 
1643109682.334289, 1.340903, -11.393856, 0.973393, , , , , , 
1643109682.354313, 1.042675, -10.983400, 0.709881, , , , , , 
1643109682.374262, 0.767042, -9.842114, 0.799514, , , , , , 
1643109682.394260, 0.864008, -10.063428, 0.570718, , , , , , 
1643109682.414274, 1.151162, -10.475380, 0.499490, , , , , , 
1643109682.434258, 1.348085, -10.126874, 0.594510, , , , , , 
1643109682.454260, 0.989553, -10.238803, 0.756568, , , , , , 
1643109682.474259, 0.557250, -10.276961, 0.784101, , , , , , 
1643109682.494262, 0.081702, -10.227132, 0.847398, , , , , , 
1643109682.514260, -0.093972, -9.680356, 0.899472, , , , , , 
1643109682.534260, 0.010325, -9.005490, 1.009755, , , , , , 
1643109682.554260, 0.397587, -8.576030, 1.152060, , , , , , 
1643109682.574251, 0.505476, -8.224232, 1.188571, , , , , , 
1643109682.594264, 0.349105, -7.998130, 1.218798, , , , , , 
1643109682.614263, 0.318429, -8.222736, 1.225981, , , , , , 
1643109682.634263, 0.362722, -8.584410, 1.167323, , , , , , 
1643109682.654271, 0.641646, -8.703671, 1.302446, , , , , , 
1643109682.674295, 0.763451, -8.658481, 1.459266, , , , , , 
1643109682.694261, 0.519991, -8.520216, 1.272219, , , , , , 
1643109682.714259, 0.505925, -8.408736, 1.386991, , , , , , 
1643109682.734260, 0.339378, -8.466496, 1.205481, , , , , , 
1643109682.754259, 0.629675, -8.916456, 1.670704, , , , , , 
1643109682.773384, 0.720355, -9.038710, 1.705569, , , , , , 
1643109682.794196, 0.663044, -9.696816, 1.817498, , , , , , 
1643109682.814291, 0.309002, -10.267683, 2.089988, , , , , , 
1643109682.834288, 0.176273, -10.529400, 2.046743, , , , , , 
1643109682.854188, 0.125546, -10.904541, 2.110788, , , , , , 
1643109682.874198, 0.310648, -10.955717, 2.222567, , , , , , 
1643109682.894287, 0.382324, -10.758345, 2.464232, , , , , , 
1643109682.914191, 0.330549, -10.498125, 2.643648, , , , , , 
1643109682.934342, 0.147243, -10.110564, 2.658462, , , , , , 
1643109682.954286, -0.259172, -10.340557, 2.325518, , , , , , 
1643109682.974308, -0.631770, -12.285846, 2.804508, , , , , , 
1643109682.994268, -0.130185, -11.388619, 2.419640, , , , , , 
1643109683.014283, -0.314838, -10.778696, 1.632995, , , , , , 
1643109683.034317, -0.853982, -10.301202, 1.171513, , , , , , 
1643109683.054287, -1.198896, -9.321525, 1.248726, , , , , , 
1643109683.074266, -1.440412, -8.883835, 0.803105, , , , , , 
1643109683.093376, -1.432481, -9.993098, 1.190367, , , , , , 
1643109683.114298, -1.323694, -10.539725, 1.420959, , , , , , 
1643109683.134300, -1.295562, -10.721983, 1.300800, , , , , , 
1643109683.154297, -0.738312, -10.874314, 1.026364, , , , , , 
1643109683.174266, -0.626982, -10.413281, 1.062577, , , , , , 
1643109683.194267, -0.610671, -9.790639, 1.329680, , , , , , 
1643109683.214272, -0.472855, -9.057863, 1.530793, , , , , , 
1643109683.234299, -0.492757, -8.558523, 1.559224, , , , , , 
1643109683.254292, -0.422577, -8.109011, 1.562815, , , , , , 
1643109683.274299, -0.404022, -7.890092, 1.580622, , , , , , 
1643109683.294271, -0.442927, -8.084620, 1.610849, , , , , , 
1643109683.314267, -0.568174, -8.391976, 1.699135, , , , , , 
1643109683.334311, -0.723498, -8.458266, 1.743577, , , , , , 
1643109683.354289, -0.673220, -8.407838, 1.770811, , , , , , 
1643109683.374300, -0.640898, -8.455572, 1.976713, , , , , , 
1643109683.394030, -0.663194, -8.350975, 1.894861, , , , , , 
1643109683.414274, -0.591218, -8.207772, 1.685518, , , , , , 
1643109683.433886, -0.667683, -8.467842, 2.048090, , , , , , 
1643109683.454299, -0.595258, -8.932317, 2.169745, , , , , , 
1643109683.474282, -0.458041, -9.245509, 2.283320, , , , , , 
1643109683.494297, -0.446070, -9.536404, 2.245312, , , , , , 
1643109683.514265, -0.450409, -10.116699, 2.248604, , , , , , 
1643109683.534265, -0.423026, -10.704625, 2.544438, , , , , , 
1643109683.554301, -0.295235, -10.999112, 2.607286, , , , , , 
1643109683.574260, -0.308852, -10.967838, 2.790891, , , , , , 
1643109683.594325, -0.429759, -10.602872, 3.024026, , , , , , 
1643109683.614272, -0.571466, -10.201544, 3.082684, , , , , , 
1643109683.634270, -0.530765, -9.902418, 2.806154, , , , , , 
1643109683.654302, -0.468066, -12.299014, 2.342128, , , , , , 
1643109683.674321, 0.789937, -12.378771, 3.006369, , , , , , 
1643109683.694301, 0.940472, -10.157550, 1.491438, , , , , , 
1643109683.714273, 0.792181, -9.912743, 1.329979, , , , , , 
1643109683.734303, 0.488268, -9.199870, 0.865055, , , , , , 
1643109683.754289, 1.018882, -9.689933, 1.494880, , , , , , 
1643109683.774278, 1.484854, -10.230723, 0.639701, , , , , , 
1643109683.794283, 1.870171, -10.899005, 0.543484, , , , , , 
1643109683.814214, 1.567604, -11.052383, 0.745195, , , , , , 
1643109683.834267, 0.978031, -11.053879, 0.938527, , , , , , 
1643109683.854215, 0.781557, -10.814160, 1.030554, , , , , , 
1643109683.874305, 0.490213, -10.590152, 1.223437, , , , , , 
1643109683.894288, 0.306009, -9.721357, 1.437868, , , , , , 
1643109683.914272, 0.265756, -9.000852, 1.436072, , , , , , 
1643109683.934264, 0.350601, -8.272715, 1.444901, , , , , , 
1643109683.954283, 0.467618, -7.756016, 1.364845, , , , , , 
1643109683.974305, 0.474800, -7.661146, 1.257554, , , , , , 
1643109683.994292, 0.397138, -7.978976, 1.286285, , , , , , 
1643109684.014337, 0.651971, -8.475324, 1.332074, , , , , , 
1643109684.034293, 0.918476, -8.590096, 1.574188, , , , , , 
1643109684.054275, 0.756268, -8.525453, 1.379509, , , , , , 
1643109684.074274, 0.744447, -8.385542, 1.254562, , , , , , 
1643109684.094273, 0.562787, -8.410232, 1.752107, , , , , , 
1643109684.114278, 0.733075, -8.622268, 1.600075, , , , , , 
1643109684.134303, 0.900519, -9.112780, 1.551143, , , , , , 
1643109684.154234, 0.825251, -9.502137, 1.814356, , , , , , 
1643109684.174279, 0.596904, -9.989208, 2.064700, , , , , , 
1643109684.194276, 0.335188, -10.613346, 2.429815, , , , , , 
1643109684.214278, 0.214880, -10.815656, 2.542941, , , , , , 
1643109684.234309, 0.245555, -10.735750, 2.482787, , , , , , 
1643109684.254291, 0.386364, -10.422109, 2.492663, , , , , , 
1643109684.273920, 0.566378, -9.992201, 2.632874, , , , , , 
1643109684.294273, 0.430807, -9.552266, 2.651279, , , , , , 
1643109684.314281, -0.233584, -12.101642, 2.598607, , , , , , 
1643109684.334324, -0.371401, -12.734010, 2.955792, , , , , , 
1643109684.354217, -0.473453, -11.313501, 1.410634, , , , , , 
1643109684.374273, -0.611270, -10.568605, 1.364545, , , , , , 
1643109684.394276, -1.234061, -10.206931, 1.360655, , , , , , 
1643109684.414252, -1.562067, -9.707740, 1.017087, , , , , , 
1643109684.434282, -1.434576, -10.362853, 1.294814, , , , , , 
1643109684.454277, -1.157297, -10.460866, 1.247828, , , , , , 
1643109684.474274, -0.929998, -10.696246, 1.423652, , , , , , 
1643109684.494280, -0.620547, -10.387244, 1.151312, , , , , , 
1643109684.514276, -0.441281, -10.215460, 1.088763, , , , , , 
1643109684.534272, -0.530615, -9.530569, 1.444452, , , , , , 
1643109684.554273, -0.532261, -8.913912, 1.664269, , , , , , 
1643109684.574275, -0.546925, -8.288128, 1.692102, , , , , , 
1643109684.594310, -0.462231, -7.851934, 1.574637, , , , , , 
1643109684.614282, -0.359729, -7.639149, 1.573888, , , , , , 
1643109684.634276, -0.434099, -7.890690, 1.663671, , , , , , 
1643109684.654274, -0.495300, -8.317157, 1.705120, , , , , , 
1643109684.674310, -0.473753, -8.498817, 1.792359, , , , , , 
1643109684.694235, -0.493206, -8.628703, 1.762881, , , , , , 
1643109684.714241, -0.477344, -8.564808, 1.543961, , , , , , 
1643109684.734246, -0.549619, -8.694094, 1.605462, , , , , , 
1643109684.754192, -0.483928, -8.757840, 2.049137, , , , , , 
1643109684.774219, -0.605583, -8.751705, 2.037915, , , , , , 
1643109684.793388, -0.782605, -8.946234, 2.120365, , , , , , 
1643109684.814223, -0.825700, -9.265860, 2.137274, , , , , , 
1643109684.834304, -0.750433, -9.583241, 2.312500, , , , , , 
1643109684.854294, -0.571915, -9.943718, 2.460491, , , , , , 
1643109684.874281, -0.389507, -10.339360, 2.546533, , , , , , 
1643109684.894311, -0.313940, -10.363452, 2.504335, , , , , , 
1643109684.914284, -0.247052, -10.281600, 2.738967, , , , , , 
1643109684.934203, -0.327257, -9.941324, 3.025373, , , , , , 
1643109684.953938, -0.468964, -9.444826, 3.106327, , , , , , 
1643109684.974243, -0.518644, -10.521020, 1.717989, , , , , , 
1643109684.994208, -0.037709, -13.938144, 3.344999, , , , , , 
1643109685.014240, 0.962469, -11.461492, 1.394622, , , , , , 
1643109685.033845, 1.137096, -10.478074, 0.938377, , , , , , 
1643109685.054174, 0.809240, -10.345495, 0.644639, , , , , , 
1643109685.074223, 0.721553, -9.890896, 1.201291, , , , , , 
1643109685.094151, 1.062427, -10.143634, 0.602441, , , , , , 
1643109685.113677, 1.280748, -11.026047, 0.579696, , , , , , 
1643109685.134157, 1.425597, -10.995371, 0.590769, , , , , , 
1643109685.154176, 1.276259, -11.173440, 1.038036, , , , , , 
1643109685.174320, 0.835277, -11.264868, 1.181987, , , , , , 
1643109685.194333, 0.465971, -11.202320, 1.322198, , , , , , 
1643109685.213776, 0.296432, -10.219949, 1.356166, , , , , , 
1643109685.234229, -0.043545, -9.322572, 1.345990, , , , , , 
1643109685.254290, -0.135123, -8.541165, 1.465850, , , , , , 
1643109685.274326, -0.018405, -7.920468, 1.444601, , , , , , 
1643109685.294319, 0.014365, -7.463924, 1.423802, , , , , , 
1643109685.313817, 0.114922, -7.583634, 1.428291, , , , , , 
1643109685.334304, 0.235829, -8.014291, 1.201440, , , , , , 
1643109685.354286, 0.631171, -8.291120, 1.196652, , , , , , 
1643109685.374313, 0.688333, -8.491635, 1.333720, , , , , , 
1643109685.394294, 0.575656, -8.502109, 1.717989, , , , , , 
1643109685.414260, 0.460285, -8.459313, 1.645714, , , , , , 
1643109685.434327, 0.464924, -8.640225, 1.531541, , , , , , 
1643109685.454287, 0.520140, -8.942792, 1.783680, , , , , , 
1643109685.474327, 0.606332, -8.884134, 2.119018, , , , , , 
1643109685.494301, 0.320524, -9.162759, 2.279579, , , , , , 
1643109685.514230, 0.050877, -9.807099, 2.260725, , , , , , 
1643109685.534313, 0.068684, -10.376769, 2.364573, , , , , , 
1643109685.554219, 0.237325, -10.657789, 2.407669, , , , , , 
1643109685.573309, 0.440683, -10.753257, 2.582745, , , , , , 
1643109685.594252, 0.417938, -10.429442, 2.498499, , , , , , 
1643109685.614299, 0.427066, -10.032154, 2.613570, , , , , , 
1643109685.634243, -0.131382, -10.520870, 2.309357, , , , , , 
1643109685.654286, -0.433201, -12.530354, 2.578406, , , , , , 
1643109685.674286, -0.338480, -10.947337, 2.169895, , , , , , 
1643109685.694327, -0.786645, -11.224466, 1.680580, , , , , , 
1643109685.714298, -0.849942, -10.469694, 1.882441, , , , , , 
1643109685.734304, -1.419762, -9.443480, 1.436072, , , , , , 
1643109685.754292, -1.855955, -9.952696, 1.363049, , , , , , 
1643109685.774313, -1.596933, -10.745626, 1.581819, , , , , , 
1643109685.794434, -1.059883, -11.203218, 1.735647, , , , , , 
1643109685.814270, -0.669179, -11.336096, 1.567454, , , , , , 
1643109685.834326, -0.429909, -11.016769, 1.337611, , , , , , 
1643109685.854317, -0.534057, -10.123283, 1.553388, , , , , , 
1643109685.874307, -0.663194, -8.990975, 1.570896, , , , , , 
1643109685.894283, -0.679804, -8.124424, 1.528997, , , , , , 
1643109685.914241, -0.442628, -7.458686, 1.494730, , , , , , 
1643109685.934281, -0.358083, -7.160159, 1.385943, , , , , , 
1643109685.954309, -0.331298, -7.607875, 1.531092, , , , , , 
1643109685.974372, -0.558448, -8.119486, 1.667861, , , , , , 
1643109685.994255, -0.644489, -8.484751, 1.308282, , , , , , 
1643109686.014223, -0.563685, -8.682872, 1.898752, , , , , , 
1643109686.034214, -0.663792, -8.844331, 1.852813, , , , , , 
1643109686.054294, -0.826299, -8.789713, 1.940949, , , , , , 
1643109686.074222, -0.920720, -8.828768, 2.012326, , , , , , 
1643109686.094319, -0.899322, -9.088240, 1.952023, , , , , , 
1643109686.114315, -0.957681, -9.267506, 2.102558, , , , , , 
1643109686.134206, -0.970549, -9.352051, 2.280327, , , , , , 
1643109686.154309, -0.834978, -9.487323, 2.466177, , , , , , 
1643109686.174314, -0.541389, -9.801263, 2.565836, , , , , , 
1643109686.194307, -0.316932, -10.130765, 2.551022, , , , , , 
1643109686.214349, -0.206350, -10.290428, 2.642600, , , , , , 
1643109686.234319, -0.323516, -10.267235, 2.886360, , , , , , 
1643109686.254226, -0.316035, -9.937433, 3.131915, , , , , , 
1643109686.274265, -0.480187, -9.537901, 3.323750, , , , , , 
1643109686.294293, -0.545279, -9.351153, 2.964770, , , , , , 
1643109686.313689, -0.563834, -11.833791, 2.173187, , , , , , 
1643109686.334310, 0.839467, -13.186664, 3.336769, , , , , , 
1643109686.354288, 1.499219, -10.568455, 1.319504, , , , , , 
1643109686.374243, 1.278204, -10.351032, 1.175852, , , , , , 
1643109686.394199, 0.968903, -9.690382, 1.040131, , , , , , 
1643109686.414261, 1.220145, -9.994146, 0.764050, , , , , , 
1643109686.434225, 1.508796, -10.283246, 0.518045, , , , , , 
1643109686.454220, 1.991976, -10.865186, 0.805050, , , , , , 
1643109686.474298, 1.788169, -11.354501, 1.061828, , , , , , 
1643109686.494302, 0.994940, -11.618612, 1.402104, , , , , , 
1643109686.514417, 0.602890, -11.456105, 1.349432, , , , , , 
1643109686.534314, 0.317381, -11.033379, 1.350330, , , , , , 
1643109686.554352, 0.137218, -10.068665, 1.614739, , , , , , 
1643109686.574319, 0.153678, -9.083302, 1.526603, , , , , , 
1643109686.594319, 0.291943, -8.182783, 1.674894, , , , , , 
1643109686.614264, 0.374393, -7.576601, 1.450288, , , , , , 
1643109686.634325, 0.520589, -7.339575, 1.094150, , , , , , 
1643109686.653890, 0.687585, -7.640945, 1.505504, , , , , , 
1643109686.674360, 0.634015, -8.001272, 1.425298, , , , , , 
1643109686.694320, 0.746542, -8.053346, 1.395969, , , , , , 
1643109686.714275, 0.872238, -8.105719, 1.390732, , , , , , 
1643109686.734289, 0.744447, -8.330625, 1.515380, , , , , , 
1643109686.753487, 0.778116, -8.481609, 1.848773, , , , , , 
1643109686.774321, 0.921618, -8.597279, 1.864185, , , , , , 
1643109686.794289, 0.940772, -8.937704, 1.902492, , , , , , 
1643109686.814319, 0.964115, -9.414599, 2.095525, , , , , , 
1643109686.834294, 0.735469, -9.757569, 2.255039, , , , , , 
1643109686.854291, 0.360028, -10.309133, 2.567033, , , , , , 
1643109686.874348, 0.247052, -10.843788, 2.584990, , , , , , 
1643109686.894311, 0.393697, -11.053580, 2.484433, , , , , , 
1643109686.914323, 0.832135, -10.813113, 2.707393, , , , , , 
1643109686.934315, 0.870442, -10.286687, 2.774730, , , , , , 
1643109686.954429, 0.530316, -10.117597, 2.902521, , , , , , 
1643109686.973921, -0.033220, -11.892598, 3.034501, , , , , , 
1643109686.994324, -0.297779, -12.052710, 3.026271, , , , , , 
1643109687.014329, -0.226551, -10.758196, 1.694796, , , , , , 
1643109687.034010, -0.200963, -10.064326, 1.570896, , , , , , 
1643109687.054319, -0.819266, -9.146599, 1.274613, , , , , , 
1643109687.074292, -1.103278, -8.967782, 1.217003, , , , , , 
1643109687.094331, -1.379060, -9.835380, 0.979378, , , , , , 
1643109687.114311, -1.322198, -10.724976, 1.028759, , , , , , 
1643109687.134326, -1.094599, -11.350012, 1.042525, , , , , , 
1643109687.154303, -0.763301, -11.466281, 1.075296, , , , , , 
1643109687.174297, -0.367360, -11.350611, 1.097442, , , , , , 
1643109687.194327, -0.312294, -10.524312, 1.356016, , , , , , 
1643109687.214264, -0.718410, -9.481487, 1.695693, , , , , , 
1643109687.234330, -0.543933, -8.555231, 1.563713, , , , , , 
1643109687.254273, -0.355988, -7.706786, 1.347487, , , , , , 
1643109687.274293, -0.051924, -7.237672, 1.533935, , , , , , 
1643109687.294327, 0.023194, -7.259668, 1.497274, , , , , , 
1643109687.314300, -0.189740, -7.842507, 1.479617, , , , , , 
1643109687.334329, -0.490512, -8.346636, 1.497124, , , , , , 
1643109687.354312, -0.496946, -8.811111, 1.663372, , , , , , 
1643109687.374329, -0.297928, -9.060108, 1.813458, , , , , , 
1643109687.394263, -0.415993, -9.127445, 1.825728, , , , , , 
1643109687.414234, -0.722450, -8.991724, 1.899649, , , , , , 
1643109687.434258, -0.788291, -8.969128, 1.964891, , , , , , 
1643109687.454277, -0.771831, -9.029732, 2.035071, , , , , , 
1643109687.474300, -0.679804, -9.212888, 2.074127, , , , , , 
1643109687.494328, -0.624587, -9.485079, 2.047342, , , , , , 
1643109687.514279, -0.392499, -9.850344, 2.243517, , , , , , 
1643109687.534295, -0.192883, -10.392780, 2.446425, , , , , , 
1643109687.554329, -0.097414, -10.591200, 2.436250, , , , , , 
1643109687.574312, -0.244358, -10.602423, 2.742259, , , , , , 
1643109687.594345, -0.307805, -10.234165, 3.009511, , , , , , 
1643109687.614257, -0.457592, -9.883115, 3.128024, , , , , , 
1643109687.634325, -0.619500, -10.125079, 2.492214, , , , , , 
1643109687.654315, 0.024840, -12.904747, 3.646968, , , , , , 
1643109687.674326, 0.752827, -11.810597, 2.016516, , , , , , 
1643109687.694299, 0.822708, -10.428993, 1.252616, , , , , , 
1643109687.714228, 0.727987, -10.172963, 0.935534, , , , , , 
1643109687.734299, 0.850989, -9.869049, 1.820192, , , , , , 
1643109687.754296, 1.146374, -9.621099, 0.782605, , , , , , 
1643109687.774327, 1.600075, -10.630106, 1.014244, , , , , , 
1643109687.794270, 1.806575, -10.586711, 0.545878, , , , , , 
1643109687.814265, 1.516128, -10.712107, 0.908300, , , , , , 
1643109687.834299, 1.113603, -10.900351, 1.027711, , , , , , 
1643109687.854298, 0.676212, -11.054927, 1.182885, , , , , , 
1643109687.874289, 0.549918, -10.405500, 1.187225, , , , , , 
1643109687.894299, 0.384269, -9.553613, 1.448492, , , , , , 
1643109687.914267, 0.205303, -8.781632, 1.459864, , , , , , 
1643109687.934323, 0.207398, -8.018481, 1.419762, , , , , , 
1643109687.954332, 0.227898, -7.543082, 1.261295, , , , , , 
1643109687.974304, 0.393248, -7.611915, 1.316212, , , , , , 
1643109687.994289, 0.546477, -7.944410, 1.335516, , , , , , 
1643109688.014364, 0.647931, -8.394969, 1.352125, , , , , , 
1643109688.034303, 0.698808, -8.730905, 1.406743, , , , , , 
1643109688.054297, 0.620547, -8.857349, 1.519420, , , , , , 
1643109688.074296, 0.632069, -8.709806, 1.627010, , , , , , 
1643109688.094348, 0.606032, -8.544008, 1.595137, , , , , , 
1643109688.114325, 0.582689, -8.765172, 1.635689, , , , , , 
1643109688.134043, 0.560243, -9.063699, 1.814506, , , , , , 
1643109688.154303, 0.577900, -9.246556, 2.108394, , , , , , 
1643109688.174300, 0.373346, -9.402778, 2.159271, , , , , , 
1643109688.194302, 0.153379, -10.088418, 2.540398, , , , , , 
1643109688.214353, 0.060005, -10.560524, 2.844461, , , , , , 
1643109688.234308, 0.241814, -10.756400, 2.895488, , , , , , 
1643109688.254301, 0.479439, -10.579229, 3.070713, , , , , , 
1643109688.274296, 0.649577, -10.219799, 3.085827, , , , , , 
1643109688.294292, 0.369605, -9.741109, 2.884714, , , , , , 
1643109688.314397, 0.134225, -9.756521, 2.770690, , , , , , 
1643109688.334320, -0.325312, -12.005724, 2.970905, , , , , , 
1643109688.354323, -0.290297, -11.636419, 2.797774, , , , , , 
1643109688.374234, -0.662446, -10.407295, 1.392378, , , , , , 
1643109688.393521, -0.793528, -10.999711, 1.630302, , , , , , 
1643109688.414278, -1.017835, -9.647436, 1.245883, , , , , , 
1643109688.434333, -1.462109, -9.819668, 1.091906, , , , , , 
1643109688.454314, -1.619229, -10.578331, 1.239598, , , , , , 
1643109688.474359, -1.424999, -10.872070, 1.185728, , , , , , 
1643109688.494341, -0.901567, -11.350162, 1.236156, , , , , , 
1643109688.514332, -0.612766, -11.398794, 1.255759, , , , , , 
1643109688.534306, -0.225055, -10.968736, 1.573589, , , , , , 
1643109688.554225, -0.533009, -9.915586, 1.457321, , , , , , 
1643109688.574338, -0.656909, -9.070283, 1.579575, , , , , , 
1643109688.594322, -0.674267, -8.288277, 1.614290, , , , , , 
1643109688.614335, -0.487070, -7.713669, 1.547702, , , , , , 
1643109688.634301, -0.225803, -7.390751, 1.553538, , , , , , 
1643109688.654303, -0.373196, -7.476493, 1.441758, , , , , , 
1643109688.674371, -0.559196, -7.827244, 1.423054, , , , , , 
1643109688.694339, -0.607828, -8.204181, 1.452831, , , , , , 
1643109688.714271, -0.478840, -8.526201, 1.576881, , , , , , 
1643109688.734313, -0.403872, -8.735993, 1.596184, , , , , , 
1643109688.754305, -0.511461, -8.755446, 1.776647, , , , , , 
1643109688.774335, -0.763301, -8.816947, 1.906084, , , , , , 
1643109688.793521, -0.787094, -9.001300, 1.822885, , , , , , 
1643109688.814335, -0.775721, -9.291597, 2.066346, , , , , , 
1643109688.834305, -0.547674, -9.647286, 2.220921, , , , , , 
1643109688.854302, -0.345513, -9.926659, 2.397793, , , , , , 
1643109688.874352, -0.204405, -10.445453, 2.593220, , , , , , 
1643109688.894334, -0.096367, -10.595988, 2.549077, , , , , , 
1643109688.914324, -0.207996, -10.515334, 2.616264, , , , , , 
1643109688.934334, -0.385766, -10.206182, 2.903867, , , , , , 
1643109688.954269, -0.302567, -9.844957, 3.137152, , , , , , 
1643109688.973926, -0.626383, -9.564237, 3.032556, , , , , , 
1643109688.994343, -0.666037, -11.087099, 2.072331, , , , , , 
1643109689.014319, 0.220566, -13.710396, 3.434333, , , , , , 
1643109689.034328, 1.201740, -10.461614, 1.397765, , , , , , 
1643109689.054334, 0.964564, -10.153959, 1.082030, , , , , , 
1643109689.073517, 0.524779, -9.784653, 0.985663, , , , , , 
1643109689.094337, 0.529418, -9.520992, 0.751929, , , , , , 
1643109689.114321, 1.036091, -10.175806, 0.357335, , , , , , 
1643109689.134302, 1.616685, -10.812364, 0.394744, , , , , , 
1643109689.154340, 1.800889, -11.108647, 0.652719, , , , , , 
1643109689.174310, 1.277755, -11.379790, 0.891092, , , , , , 
1643109689.194303, 0.811036, -11.339687, 0.868347, , , , , , 
1643109689.214339, 0.420182, -11.007941, 0.935235, , , , , , 
1643109689.234323, 0.330549, -10.281600, 1.159093, , , , , , 
1643109689.254284, 0.111779, -9.276185, 1.301249, , , , , , 
1643109689.274328, 0.123601, -8.533234, 1.302296, , , , , , 
1643109689.294347, 0.340725, -7.941417, 1.197250, , , , , , 
1643109689.314335, 0.340874, -7.657704, 1.065569, , , , , , 
1643109689.334279, 0.285209, -7.748085, 1.083825, , , , , , 
1643109689.354339, 0.363919, -8.102427, 1.033996, , , , , , 
1643109689.374288, 0.576703, -8.406042, 1.247229, , , , , , 
1643109689.393938, 0.590620, -8.573337, 1.232116, , , , , , 
1643109689.414318, 0.589273, -8.338705, 1.294814, , , , , , 
1643109689.434304, 0.609624, -8.416068, 1.477073, , , , , , 
1643109689.454341, 0.582988, -8.675390, 1.729661, , , , , , 
1643109689.474342, 0.627580, -9.030180, 1.945289, , , , , , 
1643109689.494326, 0.515053, -9.488221, 2.022053, , , , , , 
1643109689.514317, 0.477344, -9.762657, 2.205808, , , , , , 
1643109689.534306, 0.293439, -9.820866, 2.053178, , , , , , 
1643109689.554339, 0.299874, -10.138546, 2.192789, , , , , , 
1643109689.574318, 0.349254, -10.431387, 2.441637, , , , , , 
1643109689.594290, 0.471059, -10.675446, 2.609680, , , , , , 
1643109689.614353, 0.662146, -10.246136, 2.591125, , , , , , 
1643109689.634312, 0.494103, -9.856479, 2.579004, , , , , , 
1643109689.654341, -0.149039, -10.341156, 2.486528, , , , , , 
1643109689.674049, -0.796521, -12.618789, 2.998887, , , , , , 
1643109689.694310, -0.541090, -11.379640, 2.537255, , , , , , 
1643109689.714313, -0.705691, -11.402834, 1.756596, , , , , , 
1643109689.734311, -0.751779, -10.465654, 1.227627, , , , , , 
1643109689.754345, -1.477222, -9.587730, 0.360776, , , , , , 
1643109689.774281, -1.849521, -9.887305, 1.040281, , , , , , 
1643109689.794320, -1.582717, -10.529699, 1.426196, , , , , , 
1643109689.814290, -0.918176, -10.958111, 1.254262, , , , , , 
1643109689.834329, -0.701800, -11.052383, 1.091307, , , , , , 
1643109689.854296, -0.555305, -10.977115, 0.996586, , , , , , 
1643109689.874316, -0.337732, -10.275764, 1.152958, , , , , , 
1643109689.894324, -0.326360, -9.375694, 1.243788, , , , , , 
1643109689.914317, -0.498443, -8.712649, 1.434426, , , , , , 
1643109689.934315, -0.431405, -8.148216, 1.461211, , , , , , 
1643109689.953646, -0.425420, -7.788188, 1.477222, , , , , , 
1643109689.974360, -0.439635, -7.763797, 1.517625, , , , , , 
1643109689.994363, -0.511611, -8.037036, 1.484555, , , , , , 
1643109690.014321, -0.668132, -8.195951, 1.465102, , , , , , 
1643109690.034260, -0.745794, -8.426093, 1.540369, , , , , , 
1643109690.054227, -0.651073, -8.536227, 1.543362, , , , , , 
1643109690.074252, -0.600346, -8.548347, 1.657835, , , , , , 
1643109690.094198, -0.686238, -8.661623, 1.849521, , , , , , 
1643109690.114206, -0.772878, -8.908974, 1.967435, , , , , , 
1643109690.134294, -0.900669, -9.039159, 2.045546, , , , , , 
1643109690.154238, -0.799065, -9.223363, 2.127099, , , , , , 
1643109690.174226, -0.664541, -9.428965, 2.262072, , , , , , 
1643109690.194238, -0.507271, -9.699809, 2.465429, , , , , , 
1643109690.214238, -0.245406, -10.151116, 2.542792, , , , , , 
1643109690.234223, -0.142754, -10.448296, 2.588282, , , , , , 
1643109690.254240, -0.341174, -10.599580, 2.760963, , , , , , 
1643109690.274240, -0.424522, -10.175507, 2.883217, , , , , , 
1643109690.294290, -0.506074, -9.916634, 2.977190, , , , , , 
1643109690.314256, -0.471059, -10.131064, 2.597260, , , , , , 
1643109690.334304, -0.161459, -13.282582, 2.500145, , , , , , 
1643109690.354285, 0.928052, -12.480973, 2.810643, , , , , , 
1643109690.374245, 1.090708, -10.331728, 1.098939, , , , , , 
1643109690.393308, 0.689231, -10.110115, 0.724246, , , , , , 
1643109690.414265, 0.613215, -9.684995, 1.809568, , , , , , 
1643109690.434245, 0.700005, -9.875932, 0.826448, , , , , , 
1643109690.454291, 1.357961, -11.057321, 0.923114, , , , , , 
1643109690.474244, 1.536479, -10.839748, 0.594510, , , , , , 
1643109690.494215, 1.433379, -11.128848, 0.976685, , , , , , 
1643109690.514240, 0.930896, -11.106103, 1.167473, , , , , , 
1643109690.534319, 0.440683, -10.987291, 1.257704, , , , , , 
1643109690.554232, 0.231190, -10.222643, 1.517325, , , , , , 
1643109690.574251, 0.140510, -9.327211, 1.494281, , , , , , 
1643109690.594314, 0.102651, -8.604013, 1.424700, , , , , , 
1643109690.614320, 0.240617, -8.116942, 1.384896, , , , , , 
1643109690.634351, 0.403423, -7.725191, 1.319355, , , , , , 
1643109690.654353, 0.268151, -7.409456, 1.305738, , , , , , 
1643109690.674364, 0.285209, -7.942764, 1.407192, , , , , , 
1643109690.694321, 0.428712, -8.361001, 1.330578, , , , , , 
1643109690.714316, 0.521786, -8.740482, 1.433079, , , , , , 
1643109690.734315, 0.746392, -8.758439, 1.714697, , , , , , 
1643109690.754314, 0.655862, -8.437616, 1.707066, , , , , , 
1643109690.774355, 0.496049, -8.391976, 1.625663, , , , , , 
1643109690.794325, 0.480187, -8.719533, 1.755099, , , , , , 
1643109690.814319, 0.595109, -8.965238, 1.906682, , , , , , 
1643109690.833388, 0.441880, -9.206005, 1.948431, , , , , , 
1643109690.854328, 0.203058, -9.818771, 2.289904, , , , , , 
1643109690.874332, 0.023792, -10.513688, 2.643049, , , , , , 
1643109690.894340, -0.070779, -10.695797, 2.633771, , , , , , 
1643109690.914285, 0.061052, -10.877157, 2.759617, , , , , , 
1643109690.934231, 0.382025, -10.408044, 2.834286, , , , , , 
1643109690.954322, 0.408810, -10.139893, 2.837877, , , , , , 
1643109690.974339, 0.168642, -9.759215, 3.043629, , , , , , 
1643109690.994266, -0.293739, -11.160122, 2.768745, , , , , , 
1643109691.014348, -0.548871, -12.596045, 3.421464, , , , , , 
1643109691.034321, -0.455647, -10.903494, 1.754950, , , , , , 
1643109691.054351, -0.507870, -10.852018, 1.957260, , , , , , 
1643109691.074316, -0.998382, -9.903615, 1.724573, , , , , , 
1643109691.094364, -1.533187, -9.682900, 1.167024, , , , , , 
1643109691.114340, -1.660379, -10.545112, 1.353173, , , , , , 
1643109691.134329, -1.450737, -10.467150, 1.236007, , , , , , 
1643109691.154134, -1.284489, -10.470891, 1.109413, , , , , , 
1643109691.174357, -0.872537, -10.208577, 1.096544, , , , , , 
1643109691.194359, -0.587328, -10.077344, 1.122282, , , , , , 
1643109691.214343, -0.482282, -9.557803, 1.386991, , , , , , 
1643109691.234324, -0.693720, -8.873211, 1.389535, , , , , , 
1643109691.254325, -0.768389, -8.465897, 1.528847, , , , , , 
1643109691.274336, -0.684293, -8.040328, 1.536778, , , , , , 
1643109691.294377, -0.560842, -7.808988, 1.563563, , , , , , 
1643109691.314332, -0.471059, -7.906552, 1.575235, , , , , , 
1643109691.333561, -0.574758, -8.210615, 1.633893, , , , , , 
1643109691.354324, -0.634463, -8.543409, 1.763479, , , , , , 
1643109691.374356, -0.593912, -8.885032, 1.903390, , , , , , 
1643109691.394374, -0.705242, -9.001001, 2.035071, , , , , , 
1643109691.414344, -0.714669, -9.092280, 2.072630, , , , , , 
1643109691.434321, -0.746841, -9.000852, 2.125303, , , , , , 
1643109691.454321, -0.736516, -9.070433, 2.110638, , , , , , 
1643109691.474396, -0.833481, -9.156175, 2.203713, , , , , , 
1643109691.494355, -0.777966, -9.427768, 2.275240, , , , , , 
1643109691.514358, -0.684742, -9.674969, 2.354248, , , , , , 
1643109691.534337, -0.483030, -10.058191, 2.522291, , , , , , 
1643109691.554321, -0.213533, -10.366594, 2.566883, , , , , , 
1643109691.574323, -0.218770, -10.342951, 2.692579, , , , , , 
1643109691.594372, -0.333243, -10.013150, 3.019687, , , , , , 
1643109691.614356, -0.443227, -9.631873, 3.191321, , , , , , 
1643109691.634330, -0.658555, -9.219322, 2.811541, , , , , , 
1643109691.654375, -0.793528, -11.032481, 1.504905, , , , , , 
1643109691.673445, 0.097115, -13.704410, 3.771167, , , , , , 
1643109691.694356, 0.902614, -10.755203, 1.447445, , , , , , 
1643109691.714355, 0.998382, -10.796203, 0.954239, , , , , , 
1643109691.734325, 0.799663, -10.836456, 1.309928, , , , , , 
1643109691.754355, 0.761805, -10.001777, 0.937031, , , , , , 
1643109691.774330, 1.012298, -10.781539, 1.017835, , , , , , 
1643109691.794360, 1.276858, -10.645668, 0.561740, , , , , , 
1643109691.814342, 1.467646, -10.392631, 0.516100, , , , , , 
1643109691.834299, 0.903961, -10.454431, 0.784400, , , , , , 
1643109691.854341, 0.420781, -10.619033, 1.095497, , , , , , 
1643109691.874397, 0.104447, -10.335320, 1.302146, , , , , , 
1643109691.894363, 0.048183, -9.540295, 1.415272, , , , , , 
1643109691.914346, -0.018405, -8.999205, 1.329829, , , , , , 
1643109691.934329, 0.017059, -8.503157, 1.300500, , , , , , 
1643109691.954357, 0.213234, -8.047510, 1.289427, , , , , , 
1643109691.974324, 0.388609, -7.968053, 1.334767, , , , , , 
1643109691.994281, 0.344316, -8.170662, 1.375918, , , , , , 
1643109692.014308, 0.324265, -8.452280, 1.310227, , , , , , 
1643109692.034270, 0.513706, -8.579173, 1.441010, , , , , , 
1643109692.054358, 0.518644, -8.612093, 1.580173, , , , , , 
1643109692.074346, 0.530465, -8.497770, 1.541267, , , , , , 
1643109692.094356, 0.478840, -8.503157, 1.537377, , , , , , 
1643109692.114346, 0.397886, -8.618677, 1.677886, , , , , , 
1643109692.134334, 0.390255, -8.981399, 1.882591, , , , , , 
1643109692.154364, 0.342221, -9.416844, 2.025944, , , , , , 
1643109692.174355, 0.330400, -9.749040, 2.280477, , , , , , 
1643109692.194353, 0.084396, -10.039187, 2.406622, , , , , , 
1643109692.214326, 0.000748, -10.365397, 2.454206, , , , , , 
1643109692.234332, 0.089334, -10.477924, 2.453009, , , , , , 
1643109692.254365, 0.471508, -10.394726, 2.601450, , , , , , 
1643109692.274335, 0.405518, -10.037391, 2.745700, , , , , , 
1643109692.294330, 0.283414, -9.613019, 3.013552, , , , , , 
1643109692.314330, -0.310947, -10.753706, 2.702904, , , , , , 
1643109692.334401, -0.490662, -12.606968, 2.911200, , , , , , 
1643109692.354332, -0.327706, -11.223868, 2.010830, , , , , , 
1643109692.374329, -0.484975, -11.327118, 2.032528, , , , , , 
1643109692.394328, -1.085621, -10.461464, 1.684471, , , , , , 
1643109692.414329, -1.544110, -9.554361, 1.229722, , , , , , 
1643109692.434338, -1.783830, -9.443779, 0.837671, , , , , , 
1643109692.454350, -1.510741, -9.970204, 0.938078, , , , , , 
1643109692.474327, -1.154155, -10.407744, 1.023521, , , , , , 
1643109692.494363, -1.057788, -10.649708, 0.987309, , , , , , 
1643109692.514337, -0.854730, -10.595240, 1.141136, , , , , , 
1643109692.534301, -0.675763, -10.415825, 1.255759, , , , , , 
1643109692.554354, -0.705841, -9.624242, 1.491887, , , , , , 
1643109692.574332, -0.724246, -9.037064, 1.490690, , , , , , 
1643109692.594363, -0.665738, -8.418013, 1.514931, , , , , , 
1643109692.614336, -0.610821, -8.044817, 1.560271, , , , , , 
1643109692.634293, -0.484975, -8.016835, 1.523460, , , , , , 
1643109692.654330, -0.561291, -8.167969, 1.538424, , , , , , 
1643109692.674363, -0.650026, -8.484452, 1.550096, , , , , , 
1643109692.694334, -0.686837, -8.712201, 1.572841, , , , , , 
1643109692.714336, -0.781108, -8.817994, 1.696591, , , , , , 
1643109692.734329, -0.846799, -8.742876, 1.802684, , , , , , 
1643109692.754350, -0.963517, -8.665214, 1.920000, , , , , , 
1643109692.774333, -1.020080, -8.664317, 1.944092, , , , , , 
1643109692.794334, -0.926706, -8.727464, 1.927931, , , , , , 
1643109692.814333, -0.836624, -8.935310, 2.037915, , , , , , 
1643109692.834296, -0.707038, -9.171139, 2.210297, , , , , , 
1643109692.854273, -0.611719, -9.594165, 2.153435, , , , , , 
1643109692.874325, -0.362871, -10.096498, 2.181567, , , , , , 
1643109692.894288, -0.433799, -10.419566, 2.326715, , , , , , 
1643109692.914251, -0.360178, -10.539874, 2.713528, , , , , , 
1643109692.934496, -0.332794, -10.547955, 2.796428, , , , , , 
1643109692.954276, -0.430507, -10.218004, 2.982427, , , , , , 
1643109692.974350, -0.755520, -9.785850, 2.980631, , , , , , 
1643109692.994343, -0.683545, -9.781810, 2.886060, , , , , , 
1643109693.014370, -0.600196, -12.143391, 2.294393, , , , , , 
1643109693.034397, 0.633865, -12.664878, 3.304447, , , , , , 
1643109693.054387, 1.031751, -10.295516, 1.696890, , , , , , 
1643109693.074375, 0.818218, -10.576087, 1.159691, , , , , , 
1643109693.094370, 0.793827, -10.378715, 1.368137, , , , , , 
1643109693.114382, 1.073351, -9.507076, 0.790386, , , , , , 
1643109693.134318, 1.284190, -10.274417, 0.790087, , , , , , 
1643109693.154380, 1.609652, -10.643423, 0.760907, , , , , , 
1643109693.174340, 1.756446, -10.884639, 1.127819, , , , , , 
1643109693.194365, 1.108815, -11.120917, 1.119140, , , , , , 
1643109693.214383, 0.572364, -10.730363, 1.081880, , , , , , 
1643109693.234281, 0.395193, -10.298060, 1.134103, , , , , , 
1643109693.254379, 0.211288, -9.571569, 1.242591, , , , , , 
1643109693.274335, 0.297928, -8.860940, 1.240346, , , , , , 
1643109693.294365, 0.421978, -8.346037, 1.493234, , , , , , 
1643109693.314336, 0.478840, -7.916428, 1.449240, , , , , , 
1643109693.334353, 0.583287, -7.934983, 1.300052, , , , , , 
1643109693.354372, 0.625784, -8.318654, 1.195604, , , , , , 
1643109693.374338, 0.571316, -8.520216, 1.334169, , , , , , 
1643109693.394033, 0.702100, -8.693646, 1.449689, , , , , , 
1643109693.414370, 0.780659, -8.612392, 1.579575, , , , , , 
1643109693.434319, 0.737264, -8.624962, 1.771111, , , , , , 
1643109693.454369, 0.667084, -8.443751, 1.865981, , , , , , 
1643109693.474341, 0.626084, -8.631995, 1.647360, , , , , , 
1643109693.494020, 0.907552, -8.942642, 1.805827, , , , , , 
1643109693.514389, 0.691475, -9.170541, 1.804181, , , , , , 
1643109693.534368, 0.576105, -9.556306, 2.190395, , , , , , 
1643109693.554373, 0.340126, -10.115502, 2.394351, , , , , , 
1643109693.574342, 0.387861, -10.391434, 2.367267, , , , , , 
1643109693.593626, 0.440234, -10.434679, 2.323423, , , , , , 
1643109693.614369, 0.601244, -10.254964, 2.482189, , , , , , 
1643109693.634372, 0.570718, -9.907356, 2.577957, , , , , , 
1643109693.654369, 0.264260, -10.098443, 2.486079, , , , , , 
1643109693.674358, -0.357634, -12.464812, 2.737620, , , , , , 
1643109693.694335, -0.084246, -12.405406, 2.391658, , , , , , 
1643109693.714367, -0.479738, -11.757176, 1.472883, , , , , , 
1643109693.734366, -0.626533, -11.208305, 1.517475, , , , , , 
1643109693.754317, -0.950049, -10.232519, 1.556830, , , , , , 
1643109693.774339, -1.342100, -9.412804, 1.008857, , , , , , 
1643109693.794336, -1.290774, -9.624092, 0.692373, , , , , , 
1643109693.814410, -1.255759, -9.882367, 0.693570, , , , , , 
1643109693.834373, -1.208623, -10.146327, 0.591966, , , , , , 
1643109693.854397, -1.235408, -10.482713, 0.662446, , , , , , 
1643109693.874363, -0.987309, -10.503812, 0.930596, , , , , , 
1643109693.894319, -0.675015, -10.479870, 1.298106, , , , , , 
1643109693.914286, -0.546925, -9.960477, 1.296610, , , , , , 
1643109693.934286, -0.527024, -9.335740, 1.389984, , , , , , 
1643109693.954351, -0.474052, -8.651448, 1.331475, , , , , , 
1643109693.974374, -0.415993, -8.081628, 1.350928, , , , , , 
1643109693.994373, -0.327706, -7.859565, 1.381604, , , , , , 
1643109694.013890, -0.456395, -8.048707, 1.400758, , , , , , 
1643109694.034345, -0.607379, -8.472930, 1.476923, , , , , , 
1643109694.054346, -0.681599, -8.829068, 1.652298, , , , , , 
1643109694.074374, -0.920421, -9.004144, 1.761384, , , , , , 
1643109694.094373, -0.865354, -8.936507, 1.639280, , , , , , 
1643109694.113458, -1.000028, -8.956110, 1.512687, , , , , , 
1643109694.134338, -0.709432, -8.872612, 1.825579, , , , , , 
1643109694.154340, -0.455347, -9.058163, 1.805078, , , , , , 
1643109694.174377, -0.537498, -9.049035, 1.664120, , , , , , 
1643109694.194339, -0.561440, -9.188647, 1.564760, , , , , , 
1643109694.214341, -0.371101, -9.501539, 1.687613, , , , , , 
1643109694.234354, -0.080355, -9.801263, 1.756895, , , , , , 
1643109694.254300, 0.014814, -10.159346, 1.906982, , , , , , 
1643109694.274269, -0.044592, -10.298359, 2.047791, , , , , , 
1643109694.294392, -0.158616, -10.170718, 2.362778, , , , , , 
1643109694.314303, -0.175375, -9.985018, 2.578705, , , , , , 
1643109694.334278, -0.357035, -10.011205, 2.688539, , , , , , 
1643109694.354385, -0.321122, -10.250475, 2.160168, , , , , , 
1643109694.374356, 0.370054, -12.174366, 2.990807, , , , , , 
1643109694.394315, 0.721253, -12.276868, 2.173935, , , , , , 
1643109694.414316, 0.709282, -11.074679, 1.773804, , , , , , 
1643109694.434282, 0.859518, -10.074202, 1.323096, , , , , , 
1643109694.454358, 0.813280, -9.929951, 1.936460, , , , , , 
1643109694.474368, 1.229871, -9.352799, 0.902764, , , , , , 
1643109694.494352, 1.881543, -9.706991, 0.718560, , , , , , 
1643109694.514350, 1.951723, -10.034698, 0.567426, , , , , , 
1643109694.534327, 1.788169, -10.320506, 0.650325, , , , , , 
1643109694.554316, 1.219247, -10.789919, 1.014842, , , , , , 
1643109694.574356, 0.827496, -11.337742, 1.178845, , , , , , 
1643109694.594349, 0.881814, -11.191995, 1.348534, , , , , , 
1643109694.614384, 0.916530, -10.371233, 1.386392, , , , , , 
1643109694.634370, 0.687286, -9.458593, 1.317709, , , , , , 
1643109694.654347, 0.267103, -8.694543, 1.277606, , , , , , 
1643109694.674386, 0.166996, -8.130110, 1.221192, , , , , , 
1643109694.694357, 0.356137, -8.049605, 1.018583, , , , , , 
1643109694.714267, 0.827795, -7.735516, 0.949451, , , , , , 
1643109694.734368, 0.947655, -8.368333, 1.304541, , , , , , 
1643109694.754347, 1.024718, -9.012673, 1.485452, , , , , , 
1643109694.774269, 1.052850, -9.175479, 1.436820, , , , , , 
1643109694.794279, 0.974889, -9.056966, 1.403152, , , , , , 
1643109694.814325, 0.917428, -9.116072, 1.604265, , , , , , 
1643109694.834280, 0.982371, -9.177424, 1.688960, , , , , , 
1643109694.854284, 1.061380, -9.104401, 1.677288, , , , , , 
1643109694.874344, 0.942118, -9.074024, 1.562516, , , , , , 
1643109694.894387, 0.620398, -9.344569, 1.635539, , , , , , 
1643109694.914360, 0.857723, -8.969727, 1.919701, , , , , , 
1643109694.934273, 0.944213, -9.409362, 2.107496, , , , , , 
1643109694.954277, 0.175974, -10.040683, 2.160019, , , , , , 
1643109694.974269, 0.024241, -10.178051, 2.114529, , , , , , 
1643109694.994388, 0.377236, -9.679159, 2.645144, , , , , , 
1643109695.014409, 0.816423, -9.814880, 2.701108, , , , , , 
1643109695.034268, 0.507421, -9.750835, 2.599504, , , , , , 
1643109695.054319, 0.516549, -9.609577, 2.692729, , , , , , 
1643109695.074269, 0.567426, -9.890746, 2.528127, , , , , , 
1643109695.094258, -0.115969, -11.483040, 2.665944, , , , , , 
1643109695.114326, -0.331896, -11.530625, 2.176928, , , , , , 
1643109695.134409, -0.373944, -12.293627, 2.164358, , , , , , 
1643109695.154349, -0.502184, -10.984747, 2.417695, , , , , , 
1643109695.174307, -1.268179, -11.340136, 2.211644, , , , , , 
1643109695.194313, -1.464952, -10.418668, 1.958756, , , , , , 
1643109695.213324, -1.658882, -9.637111, 1.177648, , , , , , 
1643109695.234293, -1.369783, -9.643695, 1.307084, , , , , , 
1643109695.254314, -1.230919, -9.800964, 1.394174, , , , , , 
1643109695.274234, -1.316512, -9.946112, 1.824232, , , , , , 
1643109695.294306, -1.201889, -10.110414, 1.582268, , , , , , 
1643109695.314244, -1.077540, -9.921572, 1.460613, , , , , , 
1643109695.334258, -1.370980, -9.510667, 1.464952, , , , , , 
1643109695.354250, -1.345392, -8.945336, 2.023998, , , , , , 
1643109695.374247, -1.304541, -8.624064, 1.816900, , , , , , 
1643109695.394287, -1.097891, -8.371326, 1.660528, , , , , , 
1643109695.414265, -1.351377, -8.529942, 1.562665, , , , , , 
1643109695.434245, -1.246481, -8.819790, 1.651850, , , , , , 
1643109695.454234, -1.389385, -8.996512, 1.683573, , , , , , 
1643109695.474232, -1.467047, -9.412205, 1.501314, , , , , , 
1643109695.494240, -1.323096, -9.614815, 1.340753, , , , , , 
1643109695.514235, -1.142483, -9.706991, 1.997512, , , , , , 
1643109695.534233, -1.342848, -9.700557, 2.557905, , , , , , 
1643109695.554228, -1.644368, -9.903615, 1.415721, , , , , , 
1643109695.574239, -1.489493, -9.390508, 0.913238, , , , , , 
1643109695.594315, -1.321599, -9.515455, 0.436792, , , , , , 
1643109695.614367, -1.329979, -9.556905, 1.014693, , , , , , 
1643109695.634406, -0.835277, -9.826851, 1.241394, , , , , , 
1643109695.654402, -0.975039, -9.752032, 1.157597, , , , , , 
1643109695.674282, -0.552612, -10.006715, 0.878373, , , , , , 
1643109695.694405, -0.311396, -10.056545, 0.723947, , , , , , 
1643109695.714429, -0.177769, -9.810092, 0.668132, , , , , , 
1643109695.734371, -0.939425, -9.973047, 0.517297, , , , , , 
1643109695.754356, -0.888847, -10.196456, -0.235081, , , , , , 
1643109695.774384, -0.646434, -10.015694, -0.243311, , , , , , 
1643109695.794387, -0.544082, -9.747394, 0.193182, , , , , , 
1643109695.814435, -0.768988, -9.639056, 0.369755, , , , , , 
1643109695.834389, -0.240767, -9.468319, 0.208595, , , , , , 
1643109695.854324, -0.042647, -9.276334, 0.621595, , , , , , 
1643109695.874337, -0.678457, -9.669133, 0.332944, , , , , , 
1643109695.894358, -0.737414, -9.677962, 0.017358, , , , , , 
1643109695.914355, -0.121506, -10.294768, -0.190489, , , , , , 
1643109695.934385, 0.055516, -10.679337, -0.315286, , , , , , 
1643109695.954366, 0.197821, -10.881796, -0.735469, , , , , , 
1643109695.974371, -0.613963, -9.853187, -0.829890, , , , , , 
1643109695.994386, -2.051382, -8.725967, -1.753753, , , , , , 
1643109696.014372, -2.893243, -8.661473, -3.058742, , , , , , 
1643109696.034414, -2.093131, -9.160664, -3.420716, , , , , , 
1643109696.054332, -1.144877, -9.332448, -2.851644, , , , , , 
1643109696.074401, -0.246453, -9.197326, -2.411111, , , , , , 
1643109696.094357, -1.584213, -8.069956, -2.453757, , , , , , 
1643109696.114354, -2.764255, -7.987057, -3.336919, , , , , , 
1643109696.134389, -3.166631, -8.287828, -4.769250, , , , , , 
1643109696.154425, -2.459144, -8.008455, -4.279935, , , , , , 
1643109696.174396, -1.489642, -8.264934, -4.130896, , , , , , 
1643109696.194364, -1.480215, -7.892336, -4.728099, , , , , , 
1643109696.214363, -2.625691, -7.378780, -6.383391, , , , , , 
1643109696.234390, -3.213168, -7.468712, -6.030395, , , , , , 
1643109696.254426, -2.118719, -7.745691, -6.388927, , , , , , 
1643109696.274357, -1.451934, -7.717111, -6.689848, , , , , , 
1643109696.294394, -1.045817, -7.889942, -6.862979, , , , , , 
1643109696.314378, -1.026215, -7.827393, -5.999420, , , , , , 
1643109696.334195, -0.927155, -7.485621, -6.212205, , , , , , 
1643109696.354385, -0.814926, -6.873005, -6.569689, , , , , , 
1643109696.374357, -0.714669, -6.549638, -6.971915, , , , , , 
1643109696.394405, -0.668581, -6.334908, -7.537096, , , , , , 
1643109696.414356, -1.075745, -6.352565, -7.483227, , , , , , 
1643109696.433775, -1.159542, -6.360197, -7.766491, , , , , , 
1643109696.454360, -0.823605, -6.143222, -8.179640, , , , , , 
1643109696.473789, -0.347309, -5.883152, -8.943241, , , , , , 
1643109696.494317, -0.496198, -5.741146, -8.592640, , , , , , 
1643109696.514351, -0.746692, -5.792771, -8.373271, , , , , , 
1643109696.534341, -0.469264, -5.916372, -8.673893, , , , , , 
1643109696.554313, -0.280271, -5.806238, -8.932467, , , , , , 
1643109696.574314, -0.022446, -5.849633, -8.809166, , , , , , 
1643109696.594352, -0.017358, -5.767183, -8.414571, , , , , , 
1643109696.614393, -0.023942, -5.912032, -8.182184, , , , , , 
1643109696.634361, 0.050129, -5.918467, -8.096591, , , , , , 
1643109696.653863, -0.195576, -5.914277, -7.815422, , , , , , 
1643109696.674409, -0.495450, -6.082769, -7.683891, , , , , , 
1643109696.694318, -0.508319, -6.026056, -8.014440, , , , , , 
1643109696.714270, -0.491709, -5.844246, -8.179940, , , , , , 
1643109696.734325, -0.469862, -5.924452, -7.915530, , , , , , 
1643109696.754327, -0.340276, -5.801001, -7.767239, , , , , , 
1643109696.774265, 0.294636, -6.067655, -8.544307, , , , , , 
1643109696.794277, 0.072425, -6.107459, -7.308749, , , , , , 
1643109696.814264, 0.031125, -6.335806, -6.769456, , , , , , 
1643109696.834406, 0.130783, -6.182727, -7.454347, , , , , , 
1643109696.854257, 0.009278, -5.779004, -8.087763, , , , , , 