SamplingTime, AccelerationX, AccelerationY, AccelerationZ, GyroX, GyroY, GyroZ, MagneticFieldX, MagneticFieldY, MagneticFieldZ
1643108925.141674, 0.545279, -6.594380, -7.946655, , , , , , 
1643108925.158303, 0.588525, -6.552481, -7.801057, , , , , , 
1643108925.175027, 0.557999, -6.638373, -7.649624, , , , , , 
1643108925.191690, 0.347907, -6.522105, -7.426814, , , , , , 
1643108925.208293, 0.363619, -6.656479, -7.237223, , , , , , 
1643108925.224948, 0.568773, -6.787262, -7.331494, , , , , , 
1643108925.241686, 0.409109, -6.747160, -7.595754, , , , , , 
1643108925.258319, 0.157119, -6.801478, -7.725789, , , , , , 
1643108925.274964, -0.107589, -7.089381, -7.846547, , , , , , 
1643108925.291467, -0.175525, -7.047781, -7.488913, , , , , , 
1643108925.308383, -0.655712, -6.934057, -7.161656, , , , , , 
1643108925.324939, -0.406266, -6.596325, -5.394286, , , , , , 
1643108925.341708, -0.136170, -6.574478, -5.169830, , , , , , 
1643108925.358323, 1.367837, -6.732345, -6.139930, , , , , , 
1643108925.374987, 2.214038, -6.753744, -8.188319, , , , , , 
1643108925.391690, 2.155230, -6.717382, -8.715343, , , , , , 
1643108925.408341, 2.240823, -6.310367, -8.235754, , , , , , 
1643108925.425064, 1.016638, -5.168034, -8.481908, , , , , , 
1643108925.441753, 0.514753, -5.060145, -8.232762, , , , , , 
1643108925.458449, -0.000599, -5.571158, -9.338434, , , , , , 
1643108925.475088, -0.128539, -5.901857, -8.547599, , , , , , 
1643108925.491697, -0.271592, -5.990143, -8.217499, , , , , , 
1643108925.508312, -0.487070, -5.718102, -6.570288, , , , , , 
1643108925.525014, -2.410063, -6.479308, -6.840234, , , , , , 
1643108925.541723, -2.348263, -6.695086, -7.274632, , , , , , 
1643108925.558356, -1.800739, -6.968174, -6.219687, , , , , , 
1643108925.575171, -1.396268, -7.362020, -7.345411, , , , , , 
1643108925.591693, -1.169418, -7.208792, -7.836671, , , , , , 
1643108925.608356, -1.357363, -7.712322, -7.796568, , , , , , 
1643108925.625062, -2.351405, -7.475296, -6.702119, , , , , , 
1643108925.641654, -2.691681, -8.031499, -5.991639, , , , , , 
1643108925.658353, -3.333028, -7.749881, -6.673687, , , , , , 
1643108925.674987, -3.291728, -7.092972, -5.846790, , , , , , 
1643108925.691753, -3.637690, -6.766164, -5.170278, , , , , , 
1643108925.708392, -2.356044, -7.577199, -2.366369, , , , , , 
1643108925.725051, -2.102857, -8.507047, 0.922516, , , , , , 
1643108925.741653, -2.107346, -9.231742, 1.525106, , , , , , 
1643108925.758315, -2.932747, -10.501866, 3.591003, , , , , , 
1643108925.774999, -2.379986, -11.522844, 5.112069, , , , , , 
1643108925.791260, -2.094328, -11.786954, 5.803694, , , , , , 
1643108925.808403, -1.785626, -12.366201, 5.661389, , , , , , 
1643108925.824986, -1.960702, -12.020838, 5.427356, , , , , , 
1643108925.841662, -2.033874, -11.951106, 5.475390, , , , , , 
1643108925.858329, -2.006940, -10.768969, 5.167735, , , , , , 
1643108925.875082, -2.083105, -9.734674, 4.002956, , , , , , 
1643108925.891721, -1.895310, -9.218125, 3.122338, , , , , , 
1643108925.908425, -2.095675, -8.235754, 1.211915, , , , , , 
1643108925.925023, -1.993921, -8.227674, -0.125845, , , , , , 
1643108925.941764, -2.787000, -7.990648, -0.919224, , , , , , 
1643108925.957787, -1.862390, -8.186973, -0.849343, , , , , , 
1643108925.974999, -1.104176, -8.391826, -0.007183, , , , , , 
1643108925.991686, 0.264110, -8.833108, 0.754922, , , , , , 
1643108926.008425, 0.623390, -8.992322, 0.715118, , , , , , 
1643108926.025003, 0.510713, -9.080758, 0.512658, , , , , , 
1643108926.041747, 0.306458, -9.099313, -0.324115, , , , , , 
1643108926.058324, 0.726341, -9.063400, -1.290774, , , , , , 
1643108926.075099, 0.773626, -8.793304, -0.645387, , , , , , 
1643108926.091366, 0.578349, -8.816498, 0.442179, , , , , , 
1643108926.108303, 1.173907, -8.483704, 0.550068, , , , , , 
1643108926.124989, 1.067215, -8.335114, 0.758663, , , , , , 
1643108926.141663, 0.703746, -8.689605, 1.417068, , , , , , 
1643108926.158433, 1.436521, -8.894160, 1.939154, , , , , , 
1643108926.174982, 1.710059, -9.138817, 1.911620, , , , , , 
1643108926.191632, 1.307234, -9.637111, 1.100734, , , , , , 
1643108926.208351, 0.470910, -10.204237, 0.067636, , , , , , 
1643108926.224975, 0.105195, -10.389488, -0.567575, , , , , , 
1643108926.241685, -0.400281, -10.671855, -0.954987, , , , , , 
1643108926.258336, -0.802357, -10.498574, -0.339378, , , , , , 
1643108926.275021, -0.917279, -10.408792, -0.131980, , , , , , 
1643108926.291671, -0.354641, -9.961675, 1.160290, , , , , , 
1643108926.308360, 0.970998, -9.998485, 2.510470, , , , , , 
1643108926.325100, 1.376067, -9.941623, 2.466028, , , , , , 
1643108926.341763, 1.800589, -10.185981, 1.118840, , , , , , 
1643108926.358420, 1.473930, -10.468796, 0.438438, , , , , , 
1643108926.375085, 1.253813, -10.415974, 0.249895, , , , , , 
1643108926.391777, 0.775272, -10.004621, -0.485724, , , , , , 
1643108926.408476, 0.153379, -8.807520, 1.429189, , , , , , 
1643108926.425030, -0.069881, -8.624812, 2.462736, , , , , , 
1643108926.441899, 0.720804, -9.183559, 2.258331, , , , , , 
1643108926.458350, 0.736067, -9.406369, 2.328660, , , , , , 
1643108926.475109, 0.694169, -9.238027, 1.715445, , , , , , 
1643108926.491750, 0.631620, -9.523236, 1.245434, , , , , , 
1643108926.508294, -0.078560, -9.435549, 1.182736, , , , , , 
1643108926.525033, -0.438438, -9.162460, 1.325340, , , , , , 
1643108926.541667, 0.178817, -9.766996, 1.745223, , , , , , 
1643108926.558353, 0.548272, -10.240300, 1.492485, , , , , , 
1643108926.575006, 0.562787, -9.660454, 0.889596, , , , , , 
1643108926.591759, 0.695216, -9.292046, 0.773177, , , , , , 
1643108926.608474, 0.998232, -9.511415, 1.087416, , , , , , 
1643108926.625176, 1.186028, -9.628881, 1.484405, , , , , , 
1643108926.641667, 1.020379, -10.089914, 1.732205, , , , , , 
1643108926.658347, 0.766893, -10.045472, 2.018312, , , , , , 
1643108926.675054, 0.828094, -9.499594, 1.106869, , , , , , 
1643108926.691702, 1.383400, -9.506477, 0.479439, , , , , , 
1643108926.708363, 1.205481, -9.744251, 0.963068, , , , , , 
1643108926.725065, 0.434697, -10.466701, 1.858050, , , , , , 
1643108926.741765, 0.683245, -10.212318, 1.925237, , , , , , 
1643108926.758350, 0.842759, -9.971551, 1.823783, , , , , , 
1643108926.775099, 1.148020, -10.245238, 1.468095, , , , , , 
1643108926.790883, 1.080683, -10.502315, 1.254262, , , , , , 
1643108926.808334, 1.143082, -10.891672, 1.413776, , , , , , 
1643108926.825074, 0.802058, -10.843190, 1.605611, , , , , , 
1643108926.841731, 0.183007, -10.224139, 1.420809, , , , , , 
1643108926.858333, 0.305859, -10.234913, 1.446547, , , , , , 
1643108926.874979, 0.336834, -11.873295, 0.854880, , , , , , 
1643108926.891634, 0.354940, -12.134263, 1.919102, , , , , , 
1643108926.908318, -0.070330, -11.767950, 0.657508, , , , , , 
1643108926.924386, -0.465672, -11.098471, 0.040552, , , , , , 
1643108926.941780, -0.885555, -10.274716, 0.800412, , , , , , 
1643108926.958310, -0.846799, -9.424625, 0.896180, , , , , , 
1643108926.975069, -1.112406, -10.259304, 0.677559, , , , , , 
1643108926.991640, -0.628328, -10.350882, 0.426168, , , , , , 
1643108927.008368, -0.073622, -8.972420, -0.730082, , , , , , 
1643108927.024974, -1.107019, -9.384672, -0.018854, , , , , , 
1643108927.041670, -1.277307, -9.159467, -0.664092, , , , , , 
1643108927.058293, -1.770961, -9.115025, -0.561740, , , , , , 
1643108927.074205, -1.339257, -9.090036, -0.365714, , , , , , 
1643108927.091712, -1.331475, -9.188946, -0.444424, , , , , , 
1643108927.108283, -1.572990, -9.138817, -0.390105, , , , , , 
1643108927.125052, -1.548001, -9.222914, -0.440383, , , , , , 
1643108927.141652, -1.600823, -9.449465, 0.098910, , , , , , 
1643108927.157557, -1.444751, -9.707291, 0.132429, , , , , , 
1643108927.175082, -1.448642, -9.767146, -0.341024, , , , , , 
1643108927.191646, -1.582717, -9.531766, -0.212036, , , , , , 
1643108927.208352, -1.808819, -9.220669, 0.052373, , , , , , 
1643108927.225018, -1.809568, -9.418640, 0.307505, , , , , , 
1643108927.241641, -1.923741, -9.502287, 0.155473, , , , , , 
1643108927.258395, -1.710358, -9.513660, 0.345663, , , , , , 
1643108927.274972, -1.524508, -9.538649, 0.640449, , , , , , 
1643108927.291650, -1.358261, -9.614515, 0.488118, , , , , , 
1643108927.308380, -2.129792, -9.417742, 0.613215, , , , , , 
1643108927.324966, -2.223914, -9.319280, 0.783502, , , , , , 
1643108927.341371, -2.142960, -9.409213, 0.629525, , , , , , 
1643108927.358181, -1.627010, -9.384223, 0.886004, , , , , , 
1643108927.374995, -1.021726, -9.200618, 0.834379, , , , , , 
1643108927.391739, -1.627758, -8.828469, -0.073023, , , , , , 
1643108927.408293, -2.097021, -8.899547, 2.067992, , , , , , 
1643108927.425131, -0.005237, -10.450990, 0.172383, , , , , , 
1643108927.441699, -1.176152, -9.513809, 0.986561, , , , , , 
1643108927.458335, -2.089390, -9.249250, 1.127070, , , , , , 
1643108927.475008, -1.641824, -9.342773, 1.125424, , , , , , 
1643108927.491730, -1.319205, -9.238925, 1.140687, , , , , , 
1643108927.508324, -1.497424, -9.057415, 1.087566, , , , , , 
1643108927.525002, -1.579126, -9.255984, 1.186776, , , , , , 
1643108927.541696, -1.262343, -9.557054, 1.032649, , , , , , 
1643108927.558348, -0.998981, -10.023026, 0.913538, , , , , , 
1643108927.575048, -1.247828, -10.067618, 0.989553, , , , , , 
1643108927.591678, -1.447145, -10.219949, 1.302146, , , , , , 
1643108927.608334, -1.238102, -10.542568, 1.624466, , , , , , 
1643108927.624992, -0.967407, -10.433781, 1.775301, , , , , , 
1643108927.641830, -0.946009, -10.344747, 1.636586, , , , , , 
1643108927.658333, -1.119738, -10.807277, 0.590769, , , , , , 
1643108927.675022, -1.449091, -11.924321, 1.226579, , , , , , 
1643108927.691661, -0.939575, -13.227964, 1.499070, , , , , , 
1643108927.708446, -0.311396, -10.960954, -0.232387, , , , , , 
1643108927.725074, 0.413299, -11.034726, -0.006434, , , , , , 
1643108927.741670, 0.438588, -11.148151, 0.583886, , , , , , 
1643108927.758376, 0.417639, -10.486154, 0.230292, , , , , , 
1643108927.775002, 0.694169, -9.624691, 0.133626, , , , , , 
1643108927.791674, 1.010652, -9.392004, -0.047285, , , , , , 
1643108927.808434, 1.356016, -9.345916, -0.861314, , , , , , 
1643108927.825058, 1.511041, -9.434950, -1.087416, , , , , , 
1643108927.841671, 1.899949, -9.675867, -0.935983, , , , , , 
1643108927.857677, 1.756446, -10.040384, -0.573112, , , , , , 
1643108927.875027, 1.604265, -10.348039, -0.444723, , , , , , 
1643108927.891773, 0.967706, -10.488848, -0.414047, , , , , , 
1643108927.908352, 0.717063, -10.338163, -0.143353, , , , , , 
1643108927.925003, 0.530166, -10.059986, -0.123301, , , , , , 
1643108927.941671, 0.367809, -9.688736, -0.002693, , , , , , 
1643108927.958341, 0.054917, -8.793753, 0.361225, , , , , , 
1643108927.975015, -0.111181, -8.289025, 0.323068, , , , , , 
1643108927.991681, 0.388160, -7.866449, 0.459088, , , , , , 
1643108928.008345, 1.008408, -8.158990, 0.404770, , , , , , 
1643108928.025012, 1.030255, -8.246828, 0.415544, , , , , , 
1643108928.041745, 0.977433, -8.444050, 0.370503, , , , , , 
1643108928.058333, 0.793229, -8.646659, 0.363320, , , , , , 
1643108928.075005, 0.695216, -8.799739, 0.407613, , , , , , 
1643108928.091697, 0.825251, -9.216180, 0.659303, , , , , , 
1643108928.108438, 0.982820, -9.529372, 0.817021, , , , , , 
1643108928.125053, 0.999430, -9.658209, 0.912340, , , , , , 
1643108928.141673, 0.753126, -9.694422, 0.945710, , , , , , 
1643108928.158335, 0.441431, -9.308506, 0.830339, , , , , , 
1643108928.175006, 0.294786, -9.073875, 0.806696, , , , , , 
1643108928.191772, 0.289249, -9.161113, 1.403601, , , , , , 
1643108928.208356, 0.511012, -9.712827, 1.548450, , , , , , 
1643108928.225021, 0.554108, -9.971551, 1.612944, , , , , , 
1643108928.241677, 0.635361, -10.271574, 1.660379, , , , , , 
1643108928.257794, 0.191835, -10.446650, 1.533785, , , , , , 
1643108928.275011, -0.045191, -10.432434, 1.625513, , , , , , 
1643108928.291734, -0.065392, -10.486603, 1.549497, , , , , , 
1643108928.308365, 0.072874, -10.582820, 1.625214, , , , , , 
1643108928.325010, 0.152630, -10.499771, 1.387440, , , , , , 
1643108928.341679, 0.482132, -10.477176, 2.201169, , , , , , 
1643108928.357695, 0.430358, -10.480767, 2.128445, , , , , , 
1643108928.374383, 0.298078, -10.461165, 2.165555, , , , , , 
1643108928.391667, 0.062399, -10.075549, 1.898452, , , , , , 
1643108928.408466, -0.600047, -11.172093, 0.830189, , , , , , 
1643108928.424674, -0.591069, -12.954576, 2.252046, , , , , , 
1643108928.441703, -0.519392, -13.654431, 2.121263, , , , , , 
1643108928.458382, -0.825102, -12.232874, 0.485424, , , , , , 
1643108928.475007, -0.970400, -11.594071, 0.439935, , , , , , 
1643108928.491665, -1.709610, -11.146954, 0.635062, , , , , , 
1643108928.507572, -1.889773, -10.533589, 0.700304, , , , , , 
1643108928.525033, -1.738340, -9.180566, 0.258723, , , , , , 
1643108928.541739, -1.511041, -8.823232, -0.111480, , , , , , 
1643108928.558338, -1.551892, -8.727913, 0.067636, , , , , , 
1643108928.574529, -1.896507, -8.499566, -0.055964, , , , , , 
1643108928.591779, -2.099266, -8.643667, 0.126294, , , , , , 
1643108928.608076, -2.140716, -8.778939, 0.111031, , , , , , 
1643108928.625007, -1.864933, -9.042002, 0.304363, , , , , , 
1643108928.641460, -1.361253, -9.276933, 0.380977, , , , , , 
1643108928.658349, -1.273566, -9.137022, 0.364667, , , , , , 
1643108928.675010, -1.271471, -8.799140, 0.313192, , , , , , 
1643108928.691666, -1.541267, -8.486697, 0.603638, , , , , , 
1643108928.708335, -1.727416, -8.382848, 0.647781, , , , , , 
1643108928.725005, -1.797746, -8.345888, 0.428861, , , , , , 
1643108928.741691, -1.918653, -8.415918, 0.631321, , , , , , 
1643108928.758336, -1.904139, -8.534281, 0.673070, , , , , , 
1643108928.775018, -1.879598, -8.893262, 0.742801, , , , , , 
1643108928.791779, -1.668908, -9.334244, 0.858920, , , , , , 
1643108928.808390, -1.610550, -9.537602, 0.959476, , , , , , 
1643108928.825012, -1.685069, -9.900024, 1.041328, , , , , , 
1643108928.841058, -2.114230, -9.991602, 1.249624, , , , , , 
1643108928.858182, -2.166004, -9.956886, 1.327286, , , , , , 
1643108928.875027, -2.197129, -9.777471, 1.300052, , , , , , 
1643108928.891677, -2.086846, -9.446622, 1.416918, , , , , , 
1643108928.908378, -1.986290, -9.250297, 1.405396, , , , , , 
1643108928.925018, -1.651251, -8.930073, 0.912041, , , , , , 
1643108928.941680, -1.579724, -8.695441, 1.142034, , , , , , 
1643108928.958356, -1.330727, -8.637531, 0.862960, , , , , , 
1643108928.975006, -0.841712, -9.156026, 1.845481, , , , , , 
1643108928.991676, -0.856975, -9.651476, 1.994071, , , , , , 
1643108929.008116, -0.960374, -9.894787, 1.866879, , , , , , 
1643108929.025080, -1.731906, -10.020482, 1.563563, , , , , , 
1643108929.040707, -1.975366, -10.088717, 1.667412, , , , , , 
1643108929.058355, -1.684620, -10.377817, 1.858349, , , , , , 
1643108929.075024, -1.477821, -10.412533, 2.145354, , , , , , 
1643108929.091670, -1.518522, -10.541371, 2.130839, , , , , , 
1643108929.108345, -1.370381, -10.410438, 2.015768, , , , , , 
1643108929.125075, -1.131560, -9.792434, 1.751508, , , , , , 
1643108929.141684, -1.530493, -10.475380, 0.572813, , , , , , 
1643108929.158347, -1.309628, -14.327501, 2.713379, , , , , , 
1643108929.175109, 0.333542, -12.087726, 0.336685, , , , , , 
1643108929.191685, 0.500089, -10.714950, -0.506972, , , , , , 
1643108929.208412, -0.027982, -10.181941, 0.428263, , , , , , 
1643108929.225018, -1.001674, -9.592668, 0.811634, , , , , , 
1643108929.241766, -1.322946, -9.063101, 0.755371, , , , , , 
1643108929.258346, -1.108815, -8.318953, -0.164452, , , , , , 
1643108929.274529, 0.098162, -9.012673, 0.321422, , , , , , 
1643108929.290779, 0.496049, -9.682301, 0.482282, , , , , , 
1643108929.308345, 0.383820, -11.133487, 0.593313, , , , , , 
1643108929.325025, -0.423474, -11.288062, 0.780510, , , , , , 
1643108929.341464, -0.784550, -10.831518, 0.689231, , , , , , 
1643108929.358380, -1.098939, -9.982773, 0.330849, , , , , , 
1643108929.375110, -1.451485, -9.459191, 0.596755, , , , , , 
1643108929.391819, -1.374721, -9.258079, 0.678307, , , , , , 
1643108929.408479, -0.696413, -9.062203, 0.602291, , , , , , 
1643108929.424412, -0.098910, -9.198074, 0.830638, , , , , , 
1643108929.440910, -0.020500, -9.290400, 0.808043, , , , , , 
1643108929.458352, 0.037260, -9.292196, 0.808193, , , , , , 
1643108929.475037, -0.156371, -9.128941, 0.852186, , , , , , 
1643108929.490878, -0.276530, -9.059958, 0.792181, , , , , , 
1643108929.508365, -0.318578, -9.022250, 0.946308, , , , , , 
1643108929.525023, 0.063596, -9.001749, 1.120337, , , , , , 
1643108929.541784, 0.088585, -8.914810, 1.190068, , , , , , 
1643108929.558368, 0.013467, -8.743774, 1.175703, , , , , , 
1643108929.575002, -0.049380, -8.955811, 0.805798, , , , , , 
1643108929.591731, 0.044442, -8.955811, 0.920571, , , , , , 
1643108929.608389, 0.216975, -8.661473, 0.685939, , , , , , 
1643108929.625081, 0.237325, -8.729110, 1.230171, , , , , , 
1643108929.641683, 0.130035, -9.056367, 1.100435, , , , , , 
1643108929.658344, 0.185700, -9.733328, 1.012149, , , , , , 
1643108929.674997, 0.477494, -10.466103, 1.083376, , , , , , 
1643108929.691739, 0.680552, -10.813561, 1.158794, , , , , , 
1643108929.708400, 1.061828, -11.428871, 1.316661, , , , , , 
1643108929.725124, 1.135300, -11.552173, 1.240496, , , , , , 
1643108929.741657, 1.068562, -11.247062, 0.927304, , , , , , 
1643108929.757993, 0.808492, -10.755951, 0.833182, , , , , , 
1643108929.774031, 0.618901, -10.439019, 1.101632, , , , , , 
1643108929.791519, 0.666935, -9.905860, 1.255160, , , , , , 
1643108929.808343, 0.690278, -9.686192, 1.178995, , , , , , 
1643108929.825017, 0.559794, -10.547356, 0.686837, , , , , , 
1643108929.841686, -0.580594, -13.311013, 1.649455, , , , , , 
1643108929.858355, -0.065392, -11.041759, 0.806996, , , , , , 
1643108929.874434, 0.493056, -10.075549, -0.152930, , , , , , 
1643108929.891694, 0.533009, -9.987562, -0.885855, , , , , , 
1643108929.908482, -0.628029, -9.263316, -0.606780, , , , , , 
1643108929.925031, -0.931793, -8.781932, -0.364816, , , , , , 
1643108929.941699, -0.733972, -7.929596, -0.161459, , , , , , 
1643108929.958313, -0.445471, -7.855226, -0.304961, , , , , , 
1643108929.974674, -0.418985, -8.749760, -0.180613, , , , , , 
1643108929.991691, -0.416441, -11.390414, 0.518943, , , , , , 
1643108930.008419, -0.431106, -11.972804, -0.136769, , , , , , 
1643108930.025039, -0.508319, -11.286416, -0.811634, , , , , , 
1643108930.041780, -0.393697, -10.353875, -1.287033, , , , , , 
1643108930.058414, -0.319177, -9.719112, 0.215029, , , , , , 
1643108930.075015, -0.199766, -9.295937, 0.420931, , , , , , 
1643108930.091750, 0.090680, -8.579173, 0.158765, , , , , , 
1643108930.108372, 0.535703, -8.572738, 0.023343, , , , , , 
1643108930.124256, 0.602890, -8.871565, 0.013318, , , , , , 
1643108930.141703, 0.224307, -9.277831, 0.052523, , , , , , 
1643108930.158467, -0.235380, -9.232341, 0.506673, , , , , , 
1643108930.175042, -0.360028, -9.208399, 0.666187, , , , , , 
1643108930.190923, -0.507571, -9.197026, 0.688333, , , , , , 
1643108930.208400, -0.439935, -9.427917, 0.345364, , , , , , 
1643108930.225039, -0.348207, -9.735273, 1.023521, , , , , , 
1643108930.241687, -0.422726, -9.530868, 0.761655, , , , , , 
1643108930.257938, -0.373346, -9.540744, 1.205929, , , , , , 
1643108930.275110, -0.400730, -9.573066, 1.185429, , , , , , 
1643108930.291679, -0.357484, -9.553912, 1.198298, , , , , , 
1643108930.308338, -0.316484, -9.421632, 1.023072, , , , , , 
1643108930.325031, -0.341323, -9.422231, 1.252916, , , , , , 
1643108930.341688, -0.345214, -9.622147, 1.545158, , , , , , 
1643108930.358350, -0.449362, -9.621848, 1.470189, , , , , , 
1643108930.375064, -0.433051, -9.606585, 1.524658, , , , , , 
1643108930.391802, -0.332944, -9.841665, 1.684620, , , , , , 
1643108930.408367, -0.371401, -9.829993, 1.755548, , , , , , 
1643108930.425086, -0.335039, -9.754127, 1.628506, , , , , , 
1643108930.441697, -0.119860, -9.982474, 1.871667, , , , , , 
1643108930.458357, -0.201861, -10.065822, 1.885434, , , , , , 
1643108930.475077, -0.510564, -10.282198, 2.038513, , , , , , 
1643108930.491706, -0.511461, -10.113407, 2.025944, , , , , , 
1643108930.508346, -0.440982, -9.919626, 2.200720, , , , , , 
1643108930.524060, -0.367211, -9.725995, 1.751508, , , , , , 
1643108930.541709, -1.383250, -13.623756, 1.896507, , , , , , 
1643108930.558369, -0.552911, -14.655208, 3.513940, , , , , , 
1643108930.575102, 1.419163, -10.757298, -0.473004, , , , , , 
1643108930.591685, 1.647211, -10.287436, -1.871667, , , , , , 
1643108930.608462, 1.202039, -10.459968, -0.636259, , , , , , 
1643108930.625114, 0.084246, -9.998186, 1.103577, , , , , , 
1643108930.641760, -0.846949, -9.196278, 0.121655, , , , , , 
1643108930.658347, -1.083376, -8.957157, -0.227449, , , , , , 
1643108930.675148, -0.210540, -9.430012, -0.051924, , , , , , 
1643108930.691662, 1.275361, -10.843788, -0.241964, , , , , , 
1643108930.707455, 1.536479, -11.504887, -0.283713, , , , , , 
1643108930.724330, 0.759860, -11.692982, -0.014515, , , , , , 
1643108930.740727, -0.164152, -11.013328, 0.175226, , , , , , 
1643108930.758357, -0.386664, -10.617387, 0.176423, , , , , , 
1643108930.775014, -0.702698, -9.703699, 0.396390, , , , , , 
1643108930.791106, -0.772130, -8.981548, 0.580145, , , , , , 
1643108930.808350, -0.613664, -8.750807, 0.766743, , , , , , 
1643108930.825025, -0.128688, -8.561515, 0.760458, , , , , , 
1643108930.841007, 0.085892, -8.227075, 0.443376, , , , , , 
1643108930.858385, 0.183755, -8.187272, 0.337582, , , , , , 
1643108930.875038, 0.485275, -8.343793, 0.672172, , , , , , 
1643108930.891679, 0.613215, -8.421006, 0.650774, , , , , , 
1643108930.908346, 0.712724, -8.590096, 1.070956, , , , , , 
1643108930.925016, 0.606930, -8.809465, 0.864456, , , , , , 
1643108930.940796, 0.446668, -8.734945, 0.829741, , , , , , 
1643108930.957448, 0.103400, -8.534431, 0.564433, , , , , , 
1643108930.974198, 0.168342, -8.494777, 0.768539, , , , , , 
1643108930.990828, 0.259771, -8.636933, 0.999729, , , , , , 
1643108931.007559, 0.142156, -9.073126, 1.136647, , , , , , 
1643108931.024171, -0.266804, -9.482984, 1.521814, , , , , , 
1643108931.040842, -0.271892, -9.697115, 1.594688, , , , , , 
1643108931.057540, -0.119860, -10.374076, 1.340304, , , , , , 
1643108931.074162, -0.348207, -10.768820, 1.940949, , , , , , 
1643108931.090869, -0.475249, -10.838252, 1.980903, , , , , , 
1643108931.107549, -0.359729, -11.070190, 1.823185, , , , , , 
1643108931.124218, -0.026336, -11.251251, 2.061857, , , , , , 
1643108931.140911, 0.036512, -11.008240, 2.250250, , , , , , 
1643108931.157600, 0.114922, -10.556334, 2.734328, , , , , , 
1643108931.174229, -0.135123, -10.086622, 2.385074, , , , , , 
1643108931.190927, -0.608875, -10.126126, 1.632097, , , , , , 
1643108931.207659, -1.120187, -12.044480, 3.110517, , , , , , 
1643108931.224338, -0.486921, -11.292551, 1.246182, , , , , , 
1643108931.240913, -0.516549, -10.290578, -0.210839, , , , , , 
1643108931.257640, -1.471835, -10.123732, -0.624587, , , , , , 
1643108931.274268, -1.551143, -10.129718, 1.126472, , , , , , 
1643108931.291031, -1.689259, -9.923966, 0.303166, , , , , , 
1643108931.307647, -1.858349, -9.665991, -0.285209, , , , , , 
1643108931.324301, -2.131139, -9.810989, 0.451756, , , , , , 
1643108931.340975, -2.196830, -10.078691, 0.483030, , , , , , 
1643108931.357772, -1.923741, -10.541221, 0.291195, , , , , , 
1643108931.374323, -1.398812, -11.023653, -0.323516, , , , , , 
1643108931.390947, -1.361403, -10.870573, -0.374693, , , , , , 
1643108931.407677, -1.583315, -9.807548, 0.146196, , , , , , 
1643108931.424443, -1.528997, -9.116970, 0.417339, , , , , , 
1643108931.441079, -1.413477, -8.831462, 0.670077, , , , , , 
1643108931.457703, -1.133804, -8.465897, 0.767342, , , , , , 
1643108931.474371, -0.869394, -8.229021, 0.623989, , , , , , 
1643108931.491015, -0.917877, -8.203732, 0.371999, , , , , , 
1643108931.507775, -1.207127, -8.278700, 0.954538, , , , , , 
1643108931.524467, -1.781735, -8.175600, 0.519841, , , , , , 
1643108931.541213, -1.850269, -8.137742, 0.711228, , , , , , 
1643108931.557819, -1.425897, -8.313117, 0.788889, , , , , , 
1643108931.574481, -1.209521, -8.379257, 0.944513, , , , , , 
1643108931.591076, -1.145925, -8.520664, 0.931943, , , , , , 
1643108931.607859, -1.305139, -8.716241, 0.876128, , , , , , 
1643108931.624463, -1.390882, -8.804527, 1.164031, , , , , , 
1643108931.641204, -1.367688, -8.965687, 1.633444, , , , , , 
1643108931.657806, -1.373673, -9.404125, 1.633444, , , , , , 
1643108931.674487, -1.478569, -9.563040, 1.590348, , , , , , 
1643108931.691166, -1.450138, -9.902418, 1.606809, , , , , , 
1643108931.707893, -1.278354, -10.280702, 1.685967, , , , , , 
1643108931.724543, -1.204583, -10.440515, 1.840543, , , , , , 
1643108931.741268, -1.087566, -10.663625, 1.671153, , , , , , 
1643108931.757858, -1.045817, -10.892420, 1.851017, , , , , , 
1643108931.774521, -1.002871, -10.799944, 1.823633, , , , , , 
1643108931.791213, -0.894833, -10.471789, 1.918504, , , , , , 
1643108931.807948, -0.823755, -10.072706, 2.423830, , , , , , 
1643108931.824638, -0.975787, -9.863662, 2.274342, , , , , , 
1643108931.841217, -1.995866, -12.297518, 0.525527, , , , , , 
1643108931.857908, 0.489165, -12.922404, 3.774609, , , , , , 
1643108931.874693, 1.414225, -10.873566, 1.771410, , , , , , 
1643108931.891251, 1.698387, -9.566332, -2.111387, , , , , , 
1643108931.908036, 0.878373, -10.146627, 0.461782, , , , , , 
1643108931.924736, 0.813131, -10.293720, 2.014122, , , , , , 
1643108931.941297, 0.322918, -9.762657, 0.701950, , , , , , 
1643108931.957950, 0.624438, -10.056994, -0.025588, , , , , , 
1643108931.974639, 1.072453, -10.670358, 0.112228, , , , , , 
1643108931.991325, 1.662324, -11.741165, -0.125546, , , , , , 
1643108932.008004, 1.273865, -11.596914, -0.452803, , , , , , 
1643108932.024635, 0.880019, -11.466580, -0.459238, , , , , , 
1643108932.041349, 0.206799, -11.250653, -0.184952, , , , , , 
1643108932.058023, -0.217872, -10.610054, 0.392499, , , , , , 
1643108932.074689, -0.382773, -10.092159, 0.562787, , , , , , 
1643108932.091395, -0.616956, -8.938902, 0.642394, , , , , , 
1643108932.108037, -0.440683, -7.936330, 0.714669, , , , , , 
1643108932.124747, -0.257826, -7.549067, 0.602740, , , , , , 
1643108932.141487, 0.133477, -7.350349, 0.342820, , , , , , 
1643108932.158075, 0.512658, -7.638401, 0.569072, , , , , , 
1643108932.174748, 0.520589, -7.872135, 0.284461, , , , , , 
1643108932.191408, 0.389656, -8.321497, 0.835726, , , , , , 
1643108932.208163, 0.269048, -8.485799, 0.818817, , , , , , 
1643108932.224847, 0.275333, -8.534581, 0.726640, , , , , , 
1643108932.241402, 0.188394, -8.092102, 0.436643, , , , , , 
1643108932.258190, 0.172233, -8.028057, 0.586579, , , , , , 
1643108932.274776, 0.295085, -8.371775, 1.281496, , , , , , 
1643108932.291639, 0.403872, -8.982596, 1.575385, , , , , , 
1643108932.308221, 0.475548, -9.294590, 1.570147, , , , , , 
1643108932.324851, 0.494103, -9.783007, 1.634043, , , , , , 
1643108932.341600, 0.248847, -10.407595, 1.577929, , , , , , 
1643108932.358203, 0.088885, -10.759991, 1.581221, , , , , , 
1643108932.374968, -0.084096, -11.398794, 2.100762, , , , , , 
1643108932.391490, -0.303016, -11.568483, 1.935562, , , , , , 
1643108932.408156, -0.345663, -11.477653, 2.007538, , , , , , 
1643108932.424834, -0.002843, -11.153837, 2.101810, , , , , , 
1643108932.441527, 0.418387, -10.738892, 2.395249, , , , , , 
1643108932.458237, 0.338331, -10.442759, 2.543390, , , , , , 
1643108932.474960, -0.200963, -9.846454, 2.781314, , , , , , 
1643108932.491564, -1.373673, -11.803265, 1.821987, , , , , , 
1643108932.508230, -1.237952, -12.819005, 2.785055, , , , , , 
1643108932.524956, -0.767042, -11.365126, 1.225382, , , , , , 
1643108932.541575, -0.804302, -10.414029, -0.567127, , , , , , 
1643108932.558291, -1.214908, -10.680983, -0.239570, , , , , , 
1643108932.574914, -1.742231, -9.979033, 1.634641, , , , , , 
1643108932.591744, -2.133084, -8.986636, 0.481235, , , , , , 
1643108932.608308, -2.165555, -8.534730, 0.385466, , , , , , 
1643108932.624953, -1.761534, -8.729409, 0.927604, , , , , , 
1643108932.641630, -1.590348, -10.085275, 0.871789, , , , , , 
1643108932.658396, -1.524209, -10.830022, 0.867449, , , , , , 
1643108932.675018, -1.407342, -11.621006, 0.326360, , , , , , 
1643108932.691698, -1.331176, -10.551396, 0.194828, , , , , , 
1643108932.708336, -1.514781, -9.903615, 0.528221, , , , , , 
1643108932.725077, -1.512986, -8.969877, 1.152060, , , , , , 
1643108932.741654, -1.158195, -8.343194, 1.229273, , , , , , 
1643108932.758372, -1.019331, -8.173356, 1.038934, , , , , , 
1643108932.775059, -0.869245, -7.947852, 0.831835, , , , , , 
1643108932.791723, -0.885705, -7.954735, 0.910844, , , , , , 
1643108932.808390, -0.911592, -7.920318, 1.239598, , , , , , 
1643108932.825104, -0.968155, -7.938425, 0.780360, , , , , , 
1643108932.841785, -0.850989, -8.284237, 1.124227, , , , , , 
1643108932.858437, -0.915932, -8.399159, 1.054496, , , , , , 
1643108932.875088, -0.906056, -8.569297, 1.020528, , , , , , 
1643108932.891773, -0.979228, -8.742278, 0.800112, , , , , , 
1643108932.908519, -1.007211, -8.905981, 0.949151, , , , , , 
1643108932.925163, -1.024419, -9.230096, 1.381903, , , , , , 
1643108932.941880, -1.093402, -9.533561, 1.408988, , , , , , 
1643108932.958466, -1.176152, -9.639056, 1.524059, , , , , , 
1643108932.975117, -1.171064, -9.885509, 1.747169, , , , , , 
1643108932.990875, -1.034445, -10.033950, 1.745223, , , , , , 
1643108933.008434, -0.853383, -10.461165, 1.652448, , , , , , 
1643108933.025118, -1.043722, -10.739192, 1.828123, , , , , , 
1643108933.041721, -1.150414, -10.718691, 1.786523, , , , , , 
1643108933.058494, -1.056292, -10.694001, 2.007688, , , , , , 
1643108933.075133, -1.115698, -10.405350, 1.829469, , , , , , 
1643108933.091710, -1.092055, -10.271125, 2.016816, , , , , , 
1643108933.108455, -0.880468, -9.973346, 2.150891, , , , , , 
1643108933.125191, -0.895581, -9.590573, 2.074426, , , , , , 
1643108933.141863, -0.891092, -9.426570, 2.140865, , , , , , 
1643108933.158540, -1.111807, -10.714801, 1.452083, , , , , , 
1643108933.175060, -0.824802, -14.286201, 2.817078, , , , , , 
1643108933.191705, 0.308253, -12.756456, 2.867505, , , , , , 
1643108933.208542, 1.829320, -9.284265, -0.793379, , , , , , 
1643108933.225152, 2.007837, -10.283545, -1.341202, , , , , , 
1643108933.241314, 1.412729, -10.522965, -0.131831, , , , , , 
1643108933.258400, 0.318130, -10.173561, 1.246781, , , , , , 
1643108933.275054, -0.355389, -9.635913, 0.140659, , , , , , 
1643108933.291733, -0.231938, -9.663447, -0.166996, , , , , , 
1643108933.308314, 0.858621, -10.300753, 0.058059, , , , , , 
1643108933.325052, 1.580472, -11.433211, -0.060304, , , , , , 
1643108933.341739, 1.515979, -11.667843, -0.194080, , , , , , 
1643108933.357912, 0.984615, -11.322778, -0.310648, , , , , , 
1643108933.375057, 0.599897, -10.845434, -0.232836, , , , , , 
1643108933.391725, 0.301220, -10.537779, -0.112228, , , , , , 
1643108933.408393, -0.379032, -9.751284, 0.440084, , , , , , 
1643108933.425116, -0.330699, -9.154380, 0.753874, , , , , , 
1643108933.441829, -0.002544, -8.956259, 0.585083, , , , , , 
1643108933.458402, 0.433650, -8.866477, 0.661697, , , , , , 
1643108933.475104, 0.610671, -8.562563, 0.452953, , , , , , 
1643108933.491757, 0.550517, -8.438364, 0.164751, , , , , , 
1643108933.508486, 0.465672, -8.302044, 1.112107, , , , , , 
1643108933.524241, 0.262614, -8.244882, 1.166575, , , , , , 
1643108933.541836, 0.000599, -7.958925, 1.206528, , , , , , 
1643108933.558377, 0.128239, -7.783550, 0.814926, , , , , , 
1643108933.575037, 0.219369, -7.818116, 0.843358, , , , , , 
1643108933.591846, 0.396839, -8.012645, 1.097891, , , , , , 
1643108933.608570, 0.377536, -8.444649, 1.324442, , , , , , 
1643108933.625044, 0.343718, -8.702175, 1.483358, , , , , , 
1643108933.641763, 0.219967, -9.288904, 1.632097, , , , , , 
1643108933.658495, 0.114622, -9.779865, 1.784578, , , , , , 
1643108933.675042, -0.096217, -9.898527, 1.799243, , , , , , 
1643108933.691780, -0.191087, -10.082282, 1.636138, , , , , , 
1643108933.708446, 0.123002, -10.479720, 1.840094, , , , , , 
1643108933.725043, 0.343867, -10.801890, 2.096423, , , , , , 
1643108933.741714, 0.212036, -10.940155, 2.277933, , , , , , 
1643108933.758377, 0.253785, -10.894216, 2.498050, , , , , , 
1643108933.775133, 0.260369, -10.730513, 2.251298, , , , , , 
1643108933.791920, 0.106991, -10.412982, 2.295740, , , , , , 
1643108933.808387, -0.043395, -10.010756, 2.647837, , , , , , 
1643108933.825045, -0.057610, -9.786449, 2.693477, , , , , , 
1643108933.841715, -0.135721, -9.351752, 2.735974, , , , , , 
1643108933.858502, -1.227178, -11.699715, 1.714398, , , , , , 
1643108933.875269, -1.240496, -12.454637, 3.393631, , , , , , 
1643108933.891714, -0.954838, -10.215759, 1.015590, , , , , , 
1643108933.908376, -1.020828, -10.691457, -0.864157, , , , , , 
1643108933.925046, -1.387739, -11.196185, -0.058359, , , , , , 
1643108933.941792, -1.757045, -10.379014, 1.233163, , , , , , 
1643108933.958382, -2.154931, -9.398289, 0.399682, , , , , , 
1643108933.975045, -2.221071, -9.283068, 0.344017, , , , , , 
1643108933.991709, -2.025195, -9.670181, 0.841861, , , , , , 
1643108934.008478, -2.095525, -10.332925, 0.642993, , , , , , 
1643108934.025052, -2.070236, -10.610503, 0.464026, , , , , , 
1643108934.041716, -1.632097, -10.907983, 0.172532, , , , , , 
1643108934.058372, -1.373224, -10.611401, 0.395193, , , , , , 
1643108934.075051, -1.598878, -10.149769, 0.603339, , , , , , 
1643108934.091715, -1.919402, -9.195081, 1.081132, , , , , , 
1643108934.108374, -1.642572, -8.412476, 0.858621, , , , , , 
1643108934.125124, -1.425597, -8.208969, 0.587926, , , , , , 
1643108934.141748, -1.001973, -7.931242, 0.701800, , , , , , 
1643108934.158377, -1.160589, -7.742549, 0.562787, , , , , , 
1643108934.175058, -1.198896, -7.825149, 1.065719, , , , , , 
1643108934.191817, -1.386243, -8.363395, 0.997335, , , , , , 
1643108934.208462, -1.760337, -8.700080, 0.825700, , , , , , 
1643108934.225051, -1.780837, -8.823980, 0.799963, , , , , , 
1643108934.241718, -1.411382, -9.266309, 0.955436, , , , , , 
1643108934.258403, -1.230470, -9.460987, 0.990302, , , , , , 
1643108934.275112, -1.106570, -9.559149, 1.036240, , , , , , 
1643108934.291726, -1.360505, -9.370456, 1.151461, , , , , , 
1643108934.308399, -1.521665, -9.242666, 1.230021, , , , , , 
1643108934.325083, -1.706467, -9.109189, 1.366042, , , , , , 
1643108934.341728, -1.432182, -9.056666, 1.730110, , , , , , 
1643108934.358383, -1.255759, -9.167398, 1.698836, , , , , , 
1643108934.375061, -1.199345, -9.429114, 1.765873, , , , , , 
1643108934.391768, -1.026813, -9.957335, 2.023699, , , , , , 
1643108934.408435, -1.012598, -10.057143, 1.845181, , , , , , 
1643108934.425059, -0.819266, -10.341455, 1.950227, , , , , , 
1643108934.441719, -0.818967, -10.558579, 1.900846, , , , , , 
1643108934.458428, -0.844255, -10.476727, 1.880196, , , , , , 
1643108934.475060, -0.780809, -10.167426, 2.176030, , , , , , 
1643108934.491609, -0.879719, -9.904214, 2.351555, , , , , , 
1643108934.508403, -0.941520, -9.722105, 2.335693, , , , , , 
1643108934.525085, -1.105523, -9.441834, 1.999907, , , , , , 
1643108934.541728, -1.827973, -12.789526, 1.160889, , , , , , 
1643108934.558452, -0.690578, -14.192678, 3.404255, , , , , , 
1643108934.575048, 1.380706, -11.333103, 0.727837, , , , , , 
1643108934.591730, 1.531541, -10.557980, -2.321328, , , , , , 
1643108934.608451, 1.298106, -10.768221, -0.899921, , , , , , 
1643108934.624574, 0.456245, -10.749068, 1.779191, , , , , , 
1643108934.641727, -0.452803, -9.787197, 0.804152, , , , , , 
1643108934.658449, -0.516399, -9.355193, 0.238672, , , , , , 
1643108934.675068, 0.541838, -9.551368, 0.087388, , , , , , 
1643108934.691806, 1.793556, -10.326192, 0.039804, , , , , , 
1643108934.708407, 2.069937, -10.694300, -0.165499, , , , , , 
1643108934.725156, 1.568651, -11.057920, -0.337882, , , , , , 
1643108934.741809, 0.383372, -10.844985, 0.016011, , , , , , 
1643108934.758461, 0.063746, -10.591350, 0.200215, , , , , , 
1643108934.775230, -0.460884, -9.875334, 0.458789, , , , , , 
1643108934.791705, -0.724246, -9.036166, 1.022025, , , , , , 
1643108934.808497, -0.743549, -8.547450, 0.800262, , , , , , 
1643108934.825063, -0.305410, -7.947403, 1.171513, , , , , , 
1643108934.841818, -0.064494, -7.860763, 0.995389, , , , , , 
1643108934.858415, 0.328155, -7.982568, 0.868048, , , , , , 
1643108934.874926, 0.327856, -8.260295, 0.737564, , , , , , 
1643108934.891840, 0.326659, -8.444798, 0.862810, , , , , , 
1643108934.908525, 0.395642, -9.011326, 1.203685, , , , , , 
1643108934.925234, 0.164003, -9.320178, 1.090110, , , , , , 
1643108934.941731, 0.046687, -9.292346, 1.073500, , , , , , 
1643108934.958544, -0.000449, -9.076269, 1.053299, , , , , , 
1643108934.975067, 0.087688, -8.857499, 1.171363, , , , , , 
1643108934.991729, 0.179415, -8.929325, 1.380706, , , , , , 
1643108935.008388, 0.250493, -9.246706, 1.583166, , , , , , 
1643108935.025164, -0.046388, -9.530868, 1.797148, , , , , , 
1643108935.041739, -0.218321, -9.697115, 2.019359, , , , , , 
1643108935.058582, -0.367660, -9.908703, 1.648557, , , , , , 
1643108935.075113, -0.264260, -10.282198, 1.789217, , , , , , 
1643108935.091740, -0.192434, -10.422858, 1.937807, , , , , , 
1643108935.108384, -0.146495, -10.573094, 2.000206, , , , , , 
1643108935.125048, -0.085593, -10.465205, 2.297685, , , , , , 
1643108935.141713, -0.070928, -10.398467, 2.293047, , , , , , 
1643108935.158399, -0.185251, -10.050859, 2.397643, , , , , , 
1643108935.175047, -0.080655, -9.552416, 2.521543, , , , , , 
1643108935.191723, -0.082899, -9.339631, 2.518251, , , , , , 
1643108935.208377, -1.006163, -10.383204, 1.359458, , , , , , 
1643108935.225111, -0.887501, -12.471546, 3.787477, , , , , , 
1643108935.241778, -0.617105, -11.817929, 2.898929, , , , , , 
1643108935.258386, -0.564433, -10.562769, -0.705092, , , , , , 
1643108935.275047, -1.623867, -11.434857, 0.630274, , , , , , 
1643108935.291720, -1.963395, -11.001806, 2.002450, , , , , , 
1643108935.308416, -2.534262, -9.677812, 0.829441, , , , , , 
1643108935.325144, -2.450166, -9.194034, 0.336535, , , , , , 
1643108935.341813, -2.099116, -9.549423, 0.379780, , , , , , 
1643108935.358388, -1.512088, -10.426449, 0.602441, , , , , , 
1643108935.375064, -1.435025, -10.904092, 0.566079, , , , , , 
1643108935.391721, -1.539921, -10.918607, 0.311396, , , , , , 
1643108935.408380, -1.716044, -10.353725, 0.315885, , , , , , 
1643108935.425086, -1.988235, -9.616012, 0.329951, , , , , , 
1643108935.441781, -1.931971, -9.421932, 0.821959, , , , , , 
1643108935.458275, -1.818247, -8.681824, 0.446369, , , , , , 
1643108935.475140, -1.510442, -8.299051, 0.849493, , , , , , 
1643108935.491713, -1.481712, -8.230816, 0.717662, , , , , , 
1643108935.508382, -1.507150, -8.234707, 0.666785, , , , , , 
1643108935.525048, -1.582717, -8.248174, 0.558896, , , , , , 
1643108935.541831, -1.731606, -8.480562, 0.430507, , , , , , 
1643108935.558382, -1.743428, -8.807370, 0.754922, , , , , , 
1643108935.575242, -1.706018, -8.938303, 0.749086, , , , , , 
1643108935.590944, -1.611148, -9.064747, 0.748637, , , , , , 
1643108935.608382, -1.512387, -9.122507, 0.743549, , , , , , 
1643108935.625048, -1.535282, -9.068488, 0.815824, , , , , , 
1643108935.641826, -1.478569, -8.980052, 0.972794, , , , , , 
1643108935.658386, -1.659631, -8.997260, 1.151312, , , , , , 
1643108935.675104, -1.769914, -8.979902, 1.197849, , , , , , 
1643108935.691716, -1.565808, -9.231892, 1.649306, , , , , , 
1643108935.708384, -1.616236, -9.265860, 1.444003, , , , , , 
1643108935.725065, -1.548450, -9.417592, 1.619977, , , , , , 
1643108935.741726, -1.247678, -9.832537, 2.076970, , , , , , 
1643108935.758387, -1.021277, -10.195109, 2.135179, , , , , , 
1643108935.775155, -1.001375, -10.365247, 2.054375, , , , , , 
1643108935.791786, -1.039981, -10.449044, 1.927482, , , , , , 
1643108935.808387, -0.865504, -10.540024, 1.949628, , , , , , 
1643108935.825224, -0.803404, -10.478074, 2.070236, , , , , , 
1643108935.841724, -0.823156, -10.183437, 2.280776, , , , , , 
1643108935.858388, -0.949900, -9.939379, 2.524835, , , , , , 
1643108935.875093, -1.081581, -10.429292, 2.391508, , , , , , 
1643108935.891726, -1.265186, -13.424289, 1.861193, , , , , , 
1643108935.908480, 0.657059, -11.516559, 2.373552, , , , , , 
1643108935.925162, 1.455525, -9.929652, 0.877625, , , , , , 
1643108935.941725, 1.449689, -10.017190, -0.767192, , , , , , 
1643108935.957713, -0.145897, -10.109517, 1.145775, , , , , , 
1643108935.975163, -0.639401, -9.935488, 1.770213, , , , , , 
1643108935.991827, -0.731878, -9.295338, 1.239448, , , , , , 
1643108936.008381, 0.493954, -9.343821, 0.387262, , , , , , 
1643108936.025158, 1.200692, -9.611523, 0.068833, , , , , , 
1643108936.041720, 2.266112, -10.477475, -0.509666, , , , , , 
1643108936.058386, 2.062754, -10.940304, -0.513407, , , , , , 
1643108936.075063, 1.445499, -11.149498, -0.776470, , , , , , 
1643108936.091727, 0.670526, -10.856657, -0.388160, , , , , , 
1643108936.108384, 0.155773, -10.202142, 0.108787, , , , , , 
1643108936.125206, -0.140360, -10.034847, 0.642245, , , , , , 
1643108936.141717, -0.411803, -9.831639, 0.609624, , , , , , 
1643108936.158402, -0.477793, -9.506178, 0.586280, , , , , , 
1643108936.175158, -0.558747, -8.574684, 0.420931, , , , , , 
1643108936.191721, -0.250194, -8.019827, 0.482581, , , , , , 
1643108936.208493, 0.042946, -7.983765, 0.662146, , , , , , 
1643108936.225078, 0.384868, -8.116942, 0.752528, , , , , , 
1643108936.241764, 0.257377, -8.736741, 0.707038, , , , , , 
1643108936.258402, 0.227599, -9.102156, 0.661099, , , , , , 
1643108936.274137, 0.358382, -9.417892, 0.689380, , , , , , 
1643108936.291801, 0.525527, -9.450961, 0.598999, , , , , , 
1643108936.308466, 0.565331, -9.420884, 0.652869, , , , , , 
1643108936.325160, 0.451008, -9.351602, 0.740108, , , , , , 
1643108936.341720, 0.445322, -9.416395, 1.230769, , , , , , 
1643108936.358391, 0.431704, -9.322123, 1.080383, , , , , , 
1643108936.375089, 0.228646, -9.243713, 1.240346, , , , , , 
1643108936.391798, 0.013467, -9.293243, 1.383549, , , , , , 
1643108936.408455, -0.093972, -9.324967, 1.325490, , , , , , 
1643108936.425159, -0.157269, -9.548675, 1.417966, , , , , , 
1643108936.441729, -0.124050, -9.843162, 1.436521, , , , , , 
1643108936.458530, -0.068833, -10.077494, 1.566706, , , , , , 
1643108936.475062, -0.142605, -10.363601, 1.873762, , , , , , 
1643108936.491728, -0.265756, -10.584317, 1.901894, , , , , , 
1643108936.508091, -0.252588, -10.568156, 1.931821, , , , , , 
1643108936.525083, -0.167444, -10.285041, 1.896507, , , , , , 
1643108936.541774, -0.117316, -9.979781, 2.196081, , , , , , 
1643108936.558460, -0.104148, -9.936386, 2.373701, , , , , , 
1643108936.575117, -0.867000, -12.679393, 1.886332, , , , , , 
1643108936.591827, -0.640599, -13.370419, 3.002329, , , , , , 
1643108936.608426, -0.560094, -12.109124, 1.577629, , , , , , 
1643108936.625231, -0.642544, -11.220127, -0.668880, , , , , , 
1643108936.641827, -1.874211, -10.988488, 1.074398, , , , , , 
1643108936.658502, -2.180968, -10.318710, 1.753453, , , , , , 
1643108936.675171, -2.258181, -9.422231, 1.056292, , , , , , 
1643108936.691726, -2.329259, -8.823381, 0.765546, , , , , , 
1643108936.708583, -2.451513, -8.478616, 0.610671, , , , , , 
1643108936.725173, -2.408118, -8.208969, 0.151583, , , , , , 
1643108936.741746, -2.129642, -9.411607, 0.553061, , , , , , 
1643108936.758400, -1.942895, -9.826103, 0.486621, , , , , , 
1643108936.775064, -1.501913, -10.226084, 0.525078, , , , , , 
1643108936.791731, -1.366341, -10.264840, 0.531064, , , , , , 
1643108936.808498, -1.456423, -10.154707, 0.279523, , , , , , 
1643108936.825168, -2.087893, -9.028983, 0.719158, , , , , , 
1643108936.841808, -2.109741, -8.615684, 0.584036, , , , , , 
1643108936.858396, -1.763928, -8.240094, 0.620547, , , , , , 
1643108936.875063, -1.886032, -8.251167, 0.873584, , , , , , 
1643108936.891800, -2.147000, -8.328081, 0.919074, , , , , , 
1643108936.908395, -2.180818, -8.321646, 0.611719, , , , , , 
1643108936.925101, -1.856254, -8.546103, 0.544831, , , , , , 
1643108936.941723, -1.779640, -8.763826, 0.643142, , , , , , 
1643108936.958467, -1.861941, -9.173084, 0.795474, , , , , , 
1643108936.975051, -2.041356, -9.264513, 0.861613, , , , , , 
1643108936.991727, -2.027141, -9.295039, 1.021875, , , , , , 
1643108937.008556, -1.890222, -9.085247, 0.913687, , , , , , 
1643108937.025069, -1.936161, -9.064597, 1.000327, , , , , , 
1643108937.041728, -1.969680, -9.139416, 1.214309, , , , , , 
1643108937.058467, -2.088941, -8.973019, 1.485901, , , , , , 
1643108937.075064, -2.137573, -8.832808, 1.337162, , , , , , 
1643108937.091733, -2.019060, -9.002647, 1.368286, , , , , , 
1643108937.108399, -1.840543, -9.648782, 1.737293, , , , , , 
1643108937.125111, -1.601272, -9.979332, 1.765873, , , , , , 
1643108937.141737, -1.575534, -9.991452, 1.732803, , , , , , 
1643108937.158436, -1.750161, -10.085724, 1.704223, , , , , , 
1643108937.175055, -2.019359, -10.096498, 1.561169, , , , , , 
1643108937.191774, -1.966986, -9.981876, 1.630900, , , , , , 
1643108937.208393, -1.713351, -10.036344, 1.773505, , , , , , 
1643108937.225164, -1.775151, -10.081235, 2.027889, , , , , , 
1643108937.241768, -1.981501, -10.027515, 2.015170, , , , , , 
1643108937.258472, -3.431789, -12.737452, 0.721852, , , , , , 
1643108937.275045, -0.570867, -13.328670, 2.550124, , , , , , 
1643108937.291818, 0.820164, -12.607716, 1.547103, , , , , , 
1643108937.308155, 0.063446, -11.692383, -1.005265, , , , , , 
1643108937.325149, -1.028908, -10.967239, 0.263661, , , , , , 
1643108937.341771, -1.113753, -10.833164, 1.396717, , , , , , 
1643108937.358473, -1.444153, -10.371382, 0.584634, , , , , , 
1643108937.375161, -1.624615, -9.197176, 0.361973, , , , , , 
1643108937.391834, -0.848146, -8.362198, 0.235829, , , , , , 
1643108937.408443, 0.392799, -7.431003, -0.670526, , , , , , 
1643108937.425131, 0.827197, -7.670573, -1.025018, , , , , , 
1643108937.441881, 1.392528, -9.276933, -1.239149, , , , , , 
1643108937.458501, 2.041356, -11.284172, -0.006434, , , , , , 
1643108937.475014, 1.301548, -11.850400, 0.313790, , , , , , 
1643108937.491770, -0.522535, -11.383232, -0.320973, , , , , , 
1643108937.508355, -1.193510, -10.255712, -0.041001, , , , , , 
1643108937.525134, -1.042974, -10.138097, 0.358681, , , , , , 
1643108937.541710, -0.622044, -9.546281, 0.480037, , , , , , 
1643108937.558485, -0.160860, -8.780735, 0.232537, , , , , , 
1643108937.575067, -0.269348, -8.451382, 0.071377, , , , , , 
1643108937.591803, 0.188543, -8.343045, 0.185251, , , , , , 
1643108937.608397, 0.056413, -8.893262, 0.132729, , , , , , 
1643108937.625070, 0.127192, -9.191191, 0.166696, , , , , , 
1643108937.641737, 0.372298, -9.940426, -0.030526, , , , , , 
1643108937.658505, 0.644489, -10.455479, -1.056441, , , , , , 
1643108937.675072, 0.468964, -10.524312, -1.199345, , , , , , 
1643108937.691735, 0.485574, -9.857377, 0.004339, , , , , , 
1643108937.708437, 0.532710, -9.583989, 0.127791, , , , , , 
1643108937.725135, 0.366612, -9.700258, -0.191985, , , , , , 
1643108937.741585, 0.276231, -9.836877, -0.448314, , , , , , 
1643108937.758437, 0.089783, -10.162039, -0.175375, , , , , , 
1643108937.775068, -0.145897, -10.132112, -0.077512, , , , , , 
1643108937.791733, 0.481235, -9.749189, -0.029778, , , , , , 
1643108937.807985, 0.867449, -9.880870, 0.468216, , , , , , 
1643108937.825019, 1.012897, -9.809493, 0.514604, , , , , , 
1643108937.841795, 1.160440, -9.623793, 0.492906, , , , , , 
1643108937.857693, 1.175852, -9.546580, 0.327257, , , , , , 
1643108937.875172, 0.736367, -9.508871, 0.896928, , , , , , 
1643108937.891738, 0.380229, -9.967810, 0.802656, , , , , , 
1643108937.908561, -0.074520, -10.095600, 0.850989, , , , , , 
1643108937.925070, -0.152780, -10.199748, 0.540042, , , , , , 
1643108937.941824, -0.227000, -10.651055, 0.663792, , , , , , 
1643108937.958400, -0.247501, -10.609156, 0.966060, , , , , , 
1643108937.975070, -0.330400, -10.896760, 0.943166, , , , , , 
1643108937.991905, -0.540790, -10.661530, 0.923414, , , , , , 
1643108938.008400, -1.259051, -10.297162, 0.625186, , , , , , 
1643108938.025240, -1.623269, -10.144083, 0.781108, , , , , , 
1643108938.041736, -0.966958, -9.810092, 0.241216, , , , , , 
1643108938.058457, -0.932841, -9.372701, 0.566977, , , , , , 
1643108938.075067, -1.123778, -9.294740, 0.682647, , , , , , 
1643108938.091812, -1.100734, -8.634988, 1.222090, , , , , , 
1643108938.108489, -0.985962, -8.484153, 1.119140, , , , , , 
1643108938.125045, -1.201141, -8.158093, 0.945859, , , , , , 
1643108938.141740, -0.758363, -9.024345, 0.954538, , , , , , 
1643108938.158407, -0.399682, -9.342624, 1.200542, , , , , , 
1643108938.175184, -0.730830, -9.500491, 1.110910, , , , , , 
1643108938.191746, -1.593640, -9.725995, 1.435623, , , , , , 
1643108938.208525, -1.754950, -9.651326, 1.156250, , , , , , 
1643108938.225166, -0.784400, -9.027337, 0.875979, , , , , , 
1643108938.241719, -0.043245, -7.874978, 0.487370, , , , , , 
1643108938.258450, 0.197821, -8.014590, 0.485424, , , , , , 
1643108938.275064, -0.742951, -7.876175, 0.994641, , , , , , 
1643108938.291727, -1.054347, -7.788338, 1.450437, , , , , , 
1643108938.308465, -0.735469, -8.033744, 1.905336, , , , , , 
1643108938.325070, -0.217723, -8.424597, 3.039439, , , , , , 
1643108938.341729, -0.403423, -8.531887, 3.886537, , , , , , 
1643108938.358401, -0.976834, -8.270171, 4.181623, , , , , , 
1643108938.375130, -2.002450, -8.200889, 4.936395, , , , , , 
1643108938.391767, -2.154781, -7.951144, 4.145411, , , , , , 
1643108938.408418, -1.843984, -8.064719, 4.039018, , , , , , 
1643108938.424947, -2.073977, -8.898948, 3.419369, , , , , , 
1643108938.441836, -2.617760, -9.190143, 2.598008, , , , , , 
1643108938.458242, -2.745251, -9.420884, 2.315043, , , , , , 
1643108938.475066, -3.200748, -9.432556, 2.218826, , , , , , 
1643108938.491386, -2.765153, -10.706870, 1.395969, , , , , , 
1643108938.508400, -2.989161, -11.246912, 0.801010, , , , , , 
1643108938.524637, -4.045004, -10.968287, 0.395193, , , , , , 
1643108938.541838, -4.120122, -11.881375, -0.719607, , , , , , 
1643108938.558406, -4.141969, -12.059743, -0.908001, , , , , , 
1643108938.575092, -4.895095, -11.452813, -1.387290, , , , , , 
1643108938.591729, -6.105214, -12.192322, -4.974253, , , , , , 
1643108938.608401, -5.950190, -12.412739, -5.448006, , , , , , 
1643108938.624180, -4.850054, -9.402329, -3.315071, , , , , , 
1643108938.641728, -4.503493, -7.311593, -4.576816, , , , , , 
1643108938.657512, -3.876512, -7.048679, -6.016180, , , , , , 
1643108938.675176, -4.751443, -5.595100, -9.318382, , , , , , 
1643108938.691803, -3.508553, -6.209362, -9.281272, , , , , , 
1643108938.708549, -2.617910, -7.092822, -7.902362, , , , , , 
1643108938.725076, -0.786046, -8.520814, -5.189432, , , , , , 
1643108938.741807, -1.395820, -7.627478, -4.654029, , , , , , 
1643108938.758404, -2.620154, -4.507683, -4.143166, , , , , , 
1643108938.775070, -2.456900, -5.130026, -6.516867, , , , , , 
1643108938.791739, -2.423381, -5.371990, -6.733543, , , , , , 
1643108938.808399, -2.075474, -5.964256, -6.277447, , , , , , 
1643108938.825074, -1.915661, -5.382016, -7.372794, , , , , , 
1643108938.841709, -1.691653, -5.373935, -7.759009, , , , , , 
1643108938.858422, -0.611419, -6.554875, -9.525032, , , , , , 
1643108938.875102, -0.159065, -4.777779, -11.945121, , , , , , 
1643108938.891736, 1.828123, -5.708226, -11.762862, , , , , , 
1643108938.908503, 1.658733, -6.586898, -7.589170, , , , , , 
1643108938.925063, -1.237653, -4.729296, -5.746084, , , , , , 
1643108938.941730, -2.076820, -4.757279, -5.363760, , , , , , 
1643108938.958491, -2.832789, -4.890157, -6.932112, , , , , , 
1643108938.975116, -2.335993, -5.202899, -10.175956, , , , , , 
1643108938.991771, -2.064700, -5.057601, -10.740538, , , , , , 
1643108939.008474, -0.849044, -3.821744, -10.796952, , , , , , 
1643108939.025096, 0.476296, -3.661034, -11.124059, , , , , , 
1643108939.041826, 0.663643, -3.611803, -11.242722, , , , , , 
1643108939.058478, 0.225055, -3.376573, -10.897658, , , , , , 
1643108939.075098, -0.331148, -3.535039, -10.481067, , , , , , 
1643108939.091766, -0.175675, -3.562123, -10.429741, , , , , , 
1643108939.108473, 0.236577, -3.629909, -9.794829, , , , , , 
1643108939.125166, 0.304363, -4.205714, -8.260744, , , , , , 
1643108939.141762, 0.059556, -4.419247, -7.829488, , , , , , 
1643108939.158517, -0.067038, -4.677073, -7.781455, , , , , , 
1643108939.175105, -0.092177, -4.720767, -7.356933, , , , , , 
1643108939.191765, -0.063297, -4.820725, -7.324461, , , , , , 
1643108939.208516, -0.185551, -4.745607, -7.755717, , , , , , 
1643108939.225136, -0.117615, -4.644602, -8.234258, , , , , , 
1643108939.241829, -0.094721, -4.558710, -8.396764, , , , , , 
1643108939.258465, -0.227748, -4.658817, -8.599523, , , , , , 
1643108939.275126, -0.441281, -4.717026, -8.571392, , , , , , 
1643108939.291766, -0.495300, -4.786009, -8.392575, , , , , , 
1643108939.308314, -0.370802, -4.914997, -8.731205, , , , , , 
1643108939.325046, -0.152630, -4.670639, -9.223662, , , , , , 
1643108939.341428, 0.111181, -4.920384, -9.451261, , , , , , 
1643108939.358318, -0.231190, -5.044733, -8.027459, , , , , , 
1643108939.375150, -0.302418, -5.370643, -7.255478, , , , , , 